Unnamed: 0,st,ax,ay,az,gx,gy,gz,mx,my,mz,AccTotal,GyrTotal,MagTotal,lat,lng
9000,9000.0,2.32924344,-9.7720309,0.84376525,0.01947937,0.45567628,0.32193299,-35.7917781,40.6840519,-137.067566,10.085976090197152,0.5605517649217723,147.38983299610442,33.19,32.63
9100,9100.0,1.4776245319999999,-10.5260801,1.48050079,-0.0192962648,0.103817752,0.07105865509999999,-35.1214595,41.031036,-137.239075,10.74252139819524,0.12897441123290546,147.48446073227115,33.14390277777777,32.61768055555556
9200,9200.0,1.52013093,-9.6695588,0.0879043592,-0.43081359700000005,0.22046508899999998,0.094822691,-34.923754421052635,41.53667221052632,-137.27545210526316,9.790667507717266,0.4938395901558809,147.61298288232035,33.097805555555546,32.60536111111111
9300,9300.0,2.00219271,-10.16982735,-1.29090882,-0.9484268,-0.22502899,-0.363888559,-35.29220580000001,42.7252191,-134.625245,10.447619988094461,1.041336809497428,145.5848636738273,33.05170833333333,32.59304166666667
9400,9400.0,-0.37392882,-10.8299085,-0.444442746,-1.38007503,-0.1078491205,-0.827279648,-38.0583191,43.3435065,-129.26071299999998,10.855902928756564,1.6130209610420154,141.5468847900243,33.005611111111115,32.580722222222235
9500,9500.0,1.91972048,-10.1456435,-0.464434816,-0.658352658,0.028182983100000007,-0.702108785,-40.673675,42.8247066,-126.12365679999999,10.33777604735284,0.967182170641128,139.26789088218402,32.959513888888885,32.568402777777784
9600,9600.0,1.17189333,-8.24410554,-1.093933885,0.14448776300000002,-0.68468705,-0.7814712490000001,-43.8476562,41.856077899999995,-125.431977,8.401219433285068,1.0508793574375206,139.31206979110192,32.91341666666666,32.55608333333334
9700,9700.0,2.16027448,-8.36399865,-2.86485443,-0.0632377628,-0.624127965,-0.1943458525,-45.5354313,40.970765,-124.3717965,9.104920837084322,0.6574680311992892,138.63780315494623,32.86731944444444,32.5437638888889
9800,9800.0,2.2717201,-7.760839795,-1.36513291,0.16259079199999998,-0.249958808,0.10163421675,-45.971831,41.1027531,-123.72345049999998,8.201460985489545,0.31580587064479976,138.24022623614442,32.82122222222222,32.53144444444445
9900,9900.0,4.356595700000001,-9.68290105,-3.56168978,0.568828555,-0.450751495,0.10701217695000001,-45.451660100000005,41.69982879999999,-124.342803,11.200236531364734,0.7352259306456056,138.80153616613057,32.775125,32.51912500000001
10000,10000.0,1.417356875,-8.753955900000001,-2.04723744,0.533779126,-0.35941466850000003,-0.050213624000000005,-46.0508736,41.6302495,-124.961699,9.127155047087482,0.6586895667494372,139.53211616401381,32.729027777777766,32.50680555555557
10100,10100.0,4.256156905,-14.2446305,-4.471902455,0.2362030045,-0.2984787043,0.42110595700000003,-44.8338321,42.1517958,-126.844484,15.552521229436412,0.5859100596288891,140.9835992009613,32.68293055555555,32.49448611111112
10200,10200.0,-0.68846357,-7.00899583,-0.14582596450000018,0.8551757805,0.406457521,0.2096542335,-44.4177258,42.2727955,-128.964384,7.171805999300591,0.9734512267718652,142.79968968137874,32.63683333333333,32.48216666666668
10300,10300.0,1.61074832,-9.672549400000001,0.8207763600000001,0.41149597200000004,-0.08356018100000001,0.32896423,-42.676086700000006,42.716829,-131.24450900000002,9.869201502512748,0.5357322527827305,144.46840622016612,32.590736111111106,32.469847222222235
10400,10400.0,1.72854008,-10.360638400000001,0.047207643999999986,0.621136472,0.1207611084,0.047735594000000006,-41.7692561,42.532196,-133.49990499999998,10.505755068613658,0.6436348074799184,146.20495038047176,32.544638888888876,32.45752777777779
10500,10500.0,2.07091064,-9.397696,1.2996185,0.1407013,0.5722229,0.014492798,-41.735992100000004,42.1115105,-134.87854099999998,9.712458644288189,0.5900467211416561,147.33478665983827,32.49854166666666,32.44520833333335
10600,10600.0,0.630554208,-9.9165192,0.41112366,0.17436218,0.255401608,0.17641296,-41.041413,42.227173,-136.17843299999998,9.945145530774155,0.3566232357784964,148.3648031621414,32.45244444444444,32.432888888888904
10700,10700.0,1.97466432,-9.298571800000001,1.38508908,0.17309265,0.31336059,0.198144534,-39.8458869,42.4591061,-136.905821,9.607614454018778,0.4100846805409165,148.77424564169362,32.406347222222216,32.42056944444446
10800,10800.0,1.5877655000000002,-9.6483706,1.2605957,0.111520386,0.33508911,0.246084594,-38.8461305,42.279968,-138.28780799999998,9.85970791299252,0.4306999895815374,149.7336680426058,32.36024999999999,32.40825000000002
10900,10900.0,1.78097836,-9.504712,1.26801452,0.0173461914,0.456744384,0.231600948,-37.595368,42.690048100000006,-138.4939595,9.755614320492699,0.5134682318027054,149.72134132368356,32.314152777777764,32.39593055555557
11000,11000.0,2.41148225,-10.31306145,1.84543533,-0.0616966233,0.250989531,0.2213195805,-36.20056125,43.0023199,-139.380492,10.751926011509706,0.3426943243423042,150.2885017989943,32.26805555555555,32.38361111111113
11100,11100.0,1.94910735,-11.4118822,-1.696009065,-0.3340805025,-0.5919570925,-0.250164797,-36.5428154,43.63151445,-138.73825449999998,11.714416588055196,0.7346334366447259,149.95838065215654,32.22195833333333,32.37129166666669
11200,11200.0,-0.4745994549999999,-9.50633395,-0.449831392,-1.81288527,-0.47984391,-0.8470916999999999,-39.8107914,44.6705625,-133.59199099999998,9.566506698832924,2.0581185828388797,146.3817419396626,32.175861111111104,32.358972222222235
11300,11300.0,1.0520607,-11.55959345,-0.194125367,-1.185554485,-0.1579109185,-0.6202453625000001,-42.726287899999996,44.531631299999994,-127.1294386,11.617770859973303,1.3480212588577138,141.31751183291328,32.12976388888888,32.3466527777778
11400,11400.0,0.586458225,-8.671474625,-0.5609607925,-0.21529006899999997,-0.037054061875,-0.78004264125,-45.16787382608696,43.07363765217392,-124.45367130434784,8.709580731461537,0.8136791796864816,139.2273579166017,32.08366666666666,32.334333333333355
11500,11500.0,1.2374863,-7.562544205,-1.80079041,0.16553497,-0.5196571600000001,-0.173096465,-47.37854,42.401123,-124.09363,7.874878958319589,0.5755773520135278,139.43389218826832,32.03756944444444,32.32201388888891
11600,11600.0,2.8207454210526315,-7.871856736842107,-1.947945847368421,0.22792213736842104,0.004394532736842094,0.16508002,-47.0535275,42.4716189,-124.432451,8.585920508372839,0.291775473141043,139.64722270980172,31.99147222222221,32.30969444444447
11700,11700.0,4.991722149999998,-9.6435245,-3.3221512000000004,0.5287322999999999,-0.26929474,0.06237793,-46.25846885,42.9083249,-125.6306469,11.357593565727356,0.6003528484690404,140.58468086735854,31.94537499999999,32.297375000000024
11800,11800.0,0.505732713,-8.79621695,-1.48475341,0.466497041,-0.0971916185,0.2291511555,-46.47384645,42.8157044,-125.89271425,8.990127728650902,0.5689470062009365,140.8617881510043,31.899277777777765,32.28505555555558
11900,11900.0,3.811381505,-11.68090535,-2.025128165,0.009008789300000005,0.05724410999999999,0.2265655525,-44.66514555,43.56468155,-127.3281074,12.46960898621511,0.3254594916630376,141.79317681376622,31.85318055555555,32.272736111111136
12000,12000.0,0.40502013200000014,-9.296304199999998,-0.6920013359999999,0.70509034,0.158575438,0.427182006,-43.73023995,43.82225010000001,-129.196093,9.395786753618118,0.8416254100011912,143.26374575745868,31.807083333333324,32.26041666666669
12100,12100.0,0.7101745620000001,-8.8242265,1.98738858,0.463193516,-0.06536941050000006,0.13650513,-42.3186495,43.69758635,-131.7793255,9.08223489431014,0.5584859098575986,145.14186641304988,31.7609861111111,32.24809722222225
12200,12200.0,0.3937185152631578,-9.592470052631578,1.206164694736842,0.4861891852631578,-0.15967359210526316,0.03022284257894737,-42.2859949,43.3863821,-132.30003200000002,9.688289306807787,0.5143336715448219,145.5121830114641,31.71488888888888,32.235777777777805
12300,12300.0,1.1355652,-9.5251298,0.7966034000000001,0.188114929,0.438592531,0.02914276148,-41.6783901,43.17283645,-133.95637150000002,9.62677148093331,0.4790973349857865,146.78322201428603,31.668791666666657,32.22345833333336
12400,12400.0,1.89260554,-10.13989695,0.6024871839999999,0.264753718,0.315382383,0.19761352199999999,-40.80711375,43.29116805,-135.0620305,10.337821046138249,0.4572888104391232,147.58432889255792,31.62269444444443,32.211138888888925
12500,12500.0,1.93821715,-9.279003,0.671985605,0.161216735,0.264816285,0.183692935,-40.0622558,43.20274365,-136.3973255,9.504578758641893,0.36053544757150463,148.5789403210615,31.576597222222208,32.198819444444474
12600,12600.0,1.4973831249999998,-9.526508499999998,1.642227175,0.1923751825,0.1429710385,0.23788452,-38.7973015,43.5093686,-136.873548,9.784512222143563,0.3390283362375513,148.77055996429576,31.53049999999999,32.18650000000003
12700,12700.0,1.79172135,-9.84448975,0.977241485,0.1074218775,0.4582901025,0.3089904825,-37.7560426,43.4826664,-137.70935,10.054348649187547,0.5642138630280484,149.26530475401827,31.484402777777767,32.174180555555594
12800,12800.0,2.39185792,-11.531293,1.7556029999999998,0.0015777588000000025,-0.007818603199999996,0.07746277,-36.0421756,43.7020876,-138.21289,11.912155321197432,0.09130976945118596,149.37112463653798,31.438305555555548,32.16186111111114
12900,12900.0,0.9854980679999998,-10.078134,-1.78340758,-0.93649906,-0.05799255440000001,-0.345031738,-36.60491939999999,44.023132200000006,-137.214966,10.283705008135863,1.0000317595596595,148.68085255725026,31.392208333333322,32.1495416666667
13000,13000.0,-0.76741638,-10.890237400000002,0.18188171400000006,-1.66385804,-0.18231201,-0.6751556200000001,-38.79394457142858,44.94142047619047,-131.0177742857143,10.921434276957006,1.8056225421350165,143.84340405445792,31.346111111111103,32.13722222222225
13100,13100.0,1.20972294,-11.0953124,-0.340655514,-0.7315399199999999,0.249346924,-0.91239624,-41.236266,44.9316412,-126.53717160000001,11.166822671624546,1.197933560637518,140.46751660559832,31.30001388888888,32.12490277777781
13200,13200.0,0.6641998360000001,-7.722589200000002,-0.997509772,-0.20284729199999998,-0.474301144,-0.58056638,-44.3084716,43.790284,-125.493468,7.818240080773569,0.7781852822252799,140.105384487747,31.25391666666665,32.112583333333376
13300,13300.0,2.077679465,-8.47616815,-2.5501152,-0.2732353305,-0.6429573064999999,-0.0686042788,-45.541382,43.294373,-123.02185,9.1133630739134,0.7027609859492647,138.14049737633445,31.20781944444443,32.100263888888925
13400,13400.0,1.825479155,-7.09244084,-1.33051298,0.23746489699999998,-0.13086700499999998,0.031702422500000015,-45.77301,43.1616216,-122.660524,7.446944021212787,0.27764874369018994,137.85399414142722,31.16172222222221,32.08794444444448
13500,13500.0,4.777835085,-10.44485785,-4.59515691,0.614861279,-0.5536133000000001,0.134259797,-45.0213628,43.9559936,-123.466794,12.372542321650467,0.8396981013920335,138.5755785549829,31.11562499999999,32.07562500000004
13600,13600.0,1.443298315,-7.10572185,-0.5658920219999999,0.17918701450000002,0.5800247205,-0.05392379824999999,-45.5151364,43.79394480000001,-124.56421,7.3336361295079495,0.6204520860543092,139.6631220325265,31.06952777777777,32.063305555555594
13700,13700.0,5.04332258,-13.4394147,-2.82266395,0.312968443,0.06566238299999999,0.39592208100000004,-43.789367999999996,44.717101799999995,-125.81726,14.641751241704945,0.5250280738408788,140.524771259764,31.02343055555555,32.05098611111115
13800,13800.0,-1.260023525,-8.6578287,0.007283021599999996,0.6037208595,0.06630782910000001,0.46772079200000005,-42.923889200000005,44.872741600000005,-127.95227,8.761382208679441,0.7685200355778945,142.22493254349038,30.97733333333332,32.038666666666714
13900,13900.0,0.8668655430000001,-9.8555311,0.5585540800000001,0.365478516,0.243753055,0.0928527808,-41.4913942,45.0436412,-129.94537400000002,9.910830266984174,0.45112948361331606,143.65361066941242,30.931236111111094,32.02634722222226
14000,14000.0,1.86398922,-9.57965545,1.0991622799999998,0.566607665,-0.09123382499999998,0.106488039,-41.2084952,44.9926756,-131.77093599999998,9.82154776163038,0.5863159048736338,145.21043661804237,30.885138888888875,32.01402777777782
14100,14100.0,1.24754332,-9.414399699999999,0.412208553,0.227787782,0.213592532,0.038256836,-40.899352,44.9560546,-132.41668800000002,9.506237113477468,0.31541428075928885,145.69863847538934,30.839041666666652,32.001708333333376
14200,14200.0,1.2526427999999998,-9.4826931,1.38281248,0.228532404,0.211361696,0.153887938,-40.2816784,44.6371462,-134.055786,9.664930017599241,0.347758271497398,146.92216031595115,30.792944444444426,31.989388888888932
14300,14300.0,1.66461947,-9.35083655,0.7614089799999999,0.12073974400000001,0.439604196,0.199543764,-39.546814399999995,44.9212644,-134.945372,9.528363969357617,0.4977715835612215,147.6216129319264,30.746847222222208,31.97706944444449
14400,14400.0,1.91385042,-9.862353500000001,0.921937565,0.049577330999999995,0.369766231,0.11080322,-38.244324,45.0122076,-135.975648,10.089217471622524,0.3893645332664116,148.25016840114068,30.700749999999985,31.96475000000005
14500,14500.0,1.62349547,-9.266138,1.01321714,0.0460525513,0.45611419299999995,0.224295045,-37.528991600000005,45.673522999999996,-136.55426,9.461842853133328,0.510489284324651,148.80053165839672,30.654652777777766,31.9524305555556
14600,14600.0,2.94647372,-10.3947112,1.67293854,-0.15825957899999998,0.06179657100000002,0.199794003,-36.101641,45.77091757142857,-136.67733,10.933381241854908,0.2690103465910695,148.59028741105405,30.60855555555554,31.94011111111116
14700,14700.0,0.4720367440000001,-10.461732099999999,-1.719413795,-0.846691885,-0.4166191065,-0.312364193,-37.19223030000001,46.12564135,-135.2752695,10.614075297030231,0.9957476150379796,147.68313505815848,30.56245833333332,31.927791666666714
14800,14800.0,-0.7034950225,-10.5929485,0.10483779550000001,-1.46404874,0.31601791450000005,-0.69580156,-39.6049515,46.83021535,-129.612121,10.617524458937227,1.6520146875815376,143.39158973407518,30.516361111111088,31.91547222222227
14900,14900.0,2.119577815,-10.6777235,-0.5011306735000001,-0.8790717800000001,0.0023841858649999987,-0.5420837215000001,-41.86347979999999,46.1789695,-124.84008999999999,10.89832466546356,1.033086121335972,139.53565162454072,30.470263888888873,31.90315277777783
15000,15000.0,2.297438785,-8.2798394,-0.7558181575,-0.09432525650000001,-0.76860504,-0.4502319265,-44.1791532,45.141372600000004,-122.673645,8.626816509230848,0.8968937812429947,137.9801872202587,30.42416666666665,31.890833333333386
15100,15100.0,0.5240791065,-8.55571335,-2.1705741400000003,0.16679992800000001,-0.5109748749999999,-0.287723545,-45.90225335,44.36141945,-121.77520825,8.84408971645928,0.6098171256571854,137.49238555499818,30.378069444444428,31.87851388888894
15200,15200.0,1.890996575,-8.061372050000001,-1.7787933100000002,0.22560806149999998,-0.569584656,-0.10955429400000001,-46.679916600000006,43.7220002,-121.75270220000002,8.470449980490098,0.6228437267036806,137.52951118437096,30.331972222222205,31.866194444444496
15300,15300.0,3.610505665,-9.5322201,-3.55607838,0.3866722135,-0.3995246865,0.08464050599999999,-46.51611375,43.9113617,-121.905973,10.795691811471476,0.5625899177904266,137.67023511369035,30.285874999999987,31.853875000000052
15400,15400.0,1.9480896,-8.055862,-2.1005096,0.42514038,-0.31748962,0.114852905,-46.5511321,43.9027406,-122.096023,8.550093931201243,0.5428951936619331,137.84737957476736,30.239777777777764,31.841555555555612
15500,15500.0,3.0943146,-15.127135999999998,-5.119003299999999,0.105026245,-0.4724884,0.38542175,-44.7100839,44.270857799999995,-124.2327858,16.266813492251025,0.6187291213822269,139.2576934729094,30.193680555555535,31.829236111111165
15600,15600.0,-2.2441560000000003,-7.500412,1.3992156999999998,0.5934448,0.29130554,0.5585326999999999,-44.013977600000004,44.32662979999999,-126.1928557,7.953000747969693,0.865444640200066,140.80796908324137,30.14758333333332,31.816916666666717
15700,15700.0,1.4560852,-9.475021,-0.29289246,0.5934448,-0.15290833,0.07916260000000001,-42.14225765,44.64271525,-128.274157,9.590724323700734,0.6179194164850209,142.20837063945,30.101486111111086,31.80459722222228
15800,15800.0,1.7116699,-10.156784,1.2711333999999999,0.5662842,0.014877318999999998,-0.10726929,-42.23571785,44.1607671,-129.60769399999998,10.378143147491151,0.5765464685238926,143.29071203527639,30.05538888888887,31.792277777777834
15900,15900.0,-0.42037964,-9.373275999999999,0.66719055,0.29304504,0.08198547,-0.070510864,-42.6403808,43.58184865,-131.002502,9.406389596647157,0.3123600401807968,144.49655432514965,30.009291666666652,31.779958333333393
16000,16000.0,1.705732755,-9.48436005,0.9272926579999999,0.278366088,0.285742186,0.1610725415,-41.877364799999995,43.584213500000004,-132.476122,9.681090912998943,0.4302194652277195,145.61334823942084,29.963194444444426,31.767638888888946
16100,16100.0,1.46344304,-9.24722855,1.243331915,0.13761749299999998,0.2866989115,0.216604613,-41.135559,43.2821653,-133.60832200000002,9.444752028253,0.3853745468209364,146.34441474970225,29.917097222222203,31.755319444444503
16200,16200.0,1.3948257700000002,-9.862474575,1.049129497,0.2123153725,0.1965858425,0.24353255850000002,-40.0776674,43.1201168,-134.95963999999998,10.015810725468514,0.3788866619893828,147.24017558953997,29.87099999999998,31.74300000000006
16300,16300.0,1.868295295,-9.71543185,1.110651375,0.01915664685,0.5523826635,0.20818863250000005,-38.820647799999996,43.3787534,-135.131456,9.955958179337262,0.5907600845310786,147.13704728595638,29.824902777777762,31.73068055555561
16400,16400.0,2.64409484,-10.6644122,1.6266052,-0.130567928,0.19186095539999998,0.062065124299999996,-37.734984999999995,43.67218,-135.498045,11.108961654007,0.24584260599199026,147.27867327113208,29.778805555555536,31.718361111111175
16500,16500.0,2.19931034,-10.794410899999999,-2.20723733,-1.07210232,-0.22950439399999997,-0.46195373,-38.800048,43.577575,-134.027865,11.235934053435617,1.1901946292241652,146.17818246200886,29.732708333333317,31.70604166666673
16600,16600.0,-1.68655852,-10.783647199999999,0.11765594539999999,-1.91835327,-0.336454769,-0.502267468,-40.6661985,43.65463200000001,-127.4353,10.9203420896336,2.0118586283642204,140.71013458745892,29.686611111111088,31.693722222222284
16700,16700.0,1.43806077,-11.5514641,-0.944142134,-0.958832555,0.0372177135,-0.5012489410000001,-42.226325,42.89821955555556,-122.11659888888887,11.68101059407093,1.0851434476770103,136.14633839275,29.64051388888887,31.681402777777837
16800,16800.0,0.692623915,-7.8574715,-0.62077942,0.134446717,-0.51967926,-0.691270455,-44.5053104,41.6513062,-121.16516000000001,7.913686656861178,0.8766984297544871,135.63448533980014,29.59441666666665,31.669083333333397
16900,16900.0,-0.5774101251,-8.1446614,-1.891078225,0.228570553,-0.39629668799999995,-0.2405532805,-46.21322645,40.65376365,-121.25778000000001,8.386969954144327,0.5179770663056922,135.9851455895969,29.548319444444427,31.656763888888957
17000,17000.0,3.33262409,-8.85355185,-2.096351645,-0.055574798490000014,-0.136240391,-0.09155807725,-46.3973999,40.59227005,-121.0360715,9.691599289936061,0.17502549263155942,135.83164540585358,29.502222222222198,31.644444444444513
17100,17100.0,2.9870514000000004,-8.5384186,-3.00563668,0.360260008,-0.27851258,0.0448608396,-46.76124625,40.29052705,-121.03477375,9.533222288690943,0.4577863029034934,135.86524622299285,29.456124999999982,31.632125000000066
17200,17200.0,2.90840756,-8.063168,-2.65189514,0.309664916,-0.21810608399999998,0.14424743199999998,-46.4192965,40.28343185,-121.873852,8.97573117081674,0.4056714471209736,136.49481499534795,29.410027777777763,31.619805555555626
17300,17300.0,2.26807858,-12.6805052,-3.1261902000000004,0.670358274,-0.1364074656,0.42836304399999997,-45.38948025,41.4572139,-123.142854,13.279618379832131,0.8434569942540284,137.63445115053895,29.36393055555553,31.60748611111118
17400,17400.0,-1.06142882,-7.80830688,1.1597992,0.18310242,0.37546997200000004,0.272290038,-44.8458855,41.493224700000006,-124.49233999999998,7.9810403521651825,0.5211684322549947,138.6769524076042,29.317833333333308,31.59516666666673
17500,17500.0,2.45039364,-10.3411282,-0.03491516192,0.519729612,0.35596923399999997,0.221261602,-43.482971,41.915131,-126.43356499999999,10.635950733080008,0.6754859713693665,140.1186009667008,29.27173611111109,31.58284722222229
17600,17600.0,1.82550962,-10.1223026,1.68436886,0.330108642,-0.005792236000000001,0.19729919199999998,-43.099975,41.7770385,-127.95638999999998,10.425897138177554,0.3867763189190543,141.3360359264552,29.22563888888887,31.57052777777785
17700,17700.0,1.3428116,-9.66820525,0.16365051,0.4606895475,0.22074127,-0.1169853235,-42.864227,41.6412355,-129.63486,9.762775279411764,0.529095620487367,142.74657701334078,29.179541666666648,31.558208333333408
17800,17800.0,1.1544151000000002,-9.63513975,0.8451080375,0.152954105,0.3548202525,0.101802825,-43.017578,41.22161850000001,-131.13631999999998,9.741174624742627,0.39991508821753785,144.03639244681585,29.13344444444442,31.54588888888896
17900,17900.0,1.2576675,-9.57424525,0.57965088,0.2609443675,0.32846069,0.207386015,-42.0478825,41.17508,-132.520295,9.673878478657636,0.4684677675480257,145.00021765393552,29.0873472222222,31.533569444444517
18000,18000.0,2.03009415,-9.797794499999998,0.80859755,0.167873385,0.24177551,0.2382850625,-41.1262515,41.2208555,-133.4259,10.039922801299364,0.37878974327711423,145.57824854997625,29.041249999999977,31.521250000000077
18100,18100.0,1.447704275,-9.446903,1.158596025,0.1285820025,0.3387145975,0.1681060775,-40.2534485,41.3612365,-134.332275,9.627295265694496,0.3999208574056667,146.20649667925233,28.995152777777754,31.50893055555563
18200,18200.0,2.355258975,-9.92588825,1.615142825,0.140972135,0.39837265,0.244937895,-39.27965763157895,41.360473999999996,-135.3188,10.328626693576805,0.4885856271838748,146.84944730003158,28.94905555555553,31.496611111111182
18300,18300.0,1.379295358,-12.1130186,1.13423002,-0.046577453600000006,-0.11531066699999999,-0.045535279600000006,-38.8471984,41.728591200000004,-135.64361599999998,12.249677795650904,0.14299308175473568,147.13794463886111,28.902958333333306,31.484291666666746
18400,18400.0,0.9919631999999999,-9.520045199999998,-1.10009613,-1.07577973,-0.033126830499999996,-0.341789246,-39.8072051,41.94602955,-134.327776,9.637253388333225,1.1297176951333716,146.24673710039758,28.856861111111087,31.4719722222223
18500,18500.0,-0.549911491,-10.382493400000001,-0.1624038702,-1.69507751,-0.33863677799999997,-0.6082107379999999,-41.34826750000001,42.195892,-128.577425,10.398398859972279,1.832891407728132,141.50040734646282,28.810763888888864,31.459652777777855
18600,18600.0,0.91516419,-10.7504745,-0.92184295,-0.9289398190000001,0.255519104,-0.550195314,-43.66722015,41.32576029999999,-123.511125,10.841512406902773,1.109796174569183,137.3669590718253,28.764666666666642,31.44733333333341
18700,18700.0,2.24515228,-8.5725406,-0.77107086,0.06799926690000001,-0.29364013899999997,-0.7327362119999999,-46.06407185,40.191346200000005,-122.9990415,8.895812704406909,0.7973238902012053,137.35393575139352,28.718569444444423,31.43501388888897
18800,18800.0,1.20266116,-8.4519839,-2.23685754,0.17852020300000002,-0.678889475,-0.258534242,-47.79304505,39.03030379999999,-122.48168999999999,8.827826815610441,0.7482205972928551,137.14703965414472,28.6724722222222,31.422694444444524
18900,18900.0,2.50965124,-8.489640900000001,-2.7212737700000003,-0.0613220213,-0.306042469,0.0222244261,-47.97973615,38.7329855,-121.47987549999999,9.262056635705028,0.3144215136074062,136.23397790535634,28.626374999999967,31.410375000000077
19000,19000.0,3.12406459,-8.2128679,-2.47747958,0.36472778200000006,-0.26348572,0.09520111199999999,-47.7227784,38.897858,-121.5956135,9.133140648789556,0.4602702394545272,136.29387673469722,28.58027777777775,31.39805555555564
19100,19100.0,2.36594386,-8.83015595,-3.0448425400000003,0.420442209,-0.1922744666,0.291041563,-46.9982912,39.074707000000004,-121.9560257,9.644377482423398,0.5631939043694634,136.41461224314358,28.53418055555553,31.385736111111196
19200,19200.0,3.75134125,-13.802192699999999,-4.8125441800000015,0.125788882,-0.273815908,0.2992507925,-45.4564674,40.08445785,-124.330293,15.09396006650217,0.4329187989523464,138.31522596868544,28.488083333333307,31.373416666666753
19300,19300.0,-1.4761658009999998,-7.05783846,1.7797180090000002,0.779493711,-0.0761047369,0.24289855600000002,-45.41809065,40.02784735,-125.4224415,7.5923095476935805,0.8363018841675888,139.2690266691306,28.44198611111109,31.361097222222305
19400,19400.0,1.4754790919999998,-9.7361174,-0.787890641,0.47418977,0.38276214700000005,-0.029930115099999998,-44.6974178,40.37979115,-127.88467475,9.90708771993587,0.6148503584011626,141.36087030800033,28.395888888888866,31.348777777777862
19500,19500.0,3.06972195,-10.54493875,1.2985977000000002,0.6086181580000001,-0.369958498,0.17738342199999999,-43.9744575,39.8461142,-129.257125,11.066034089589882,0.7346850990501741,142.22824712728055,28.34979166666664,31.336458333333415
19600,19600.0,0.8732460125,-9.4734702,0.2184860245,0.40390624799999997,0.052285004949999984,-0.1146942141,-44.1309355,39.2859658,-130.802842,9.517104858278783,0.4332180611555593,143.52811817799318,28.303694444444414,31.32413888888897
19700,19700.0,1.31150743,-9.18039885,1.496931445,0.272795105,0.20809021100000002,0.17091064150000002,-44.278640700000004,39.01771565,-132.0689385,9.395083167695006,0.3864506485667255,144.6554664074786,28.257597222222195,31.31181944444453
19800,19800.0,1.3136322,-9.682905300000002,0.34182053,0.241697692,0.37330551149999996,0.28129959,-43.008805200000005,39.25758345000001,-133.5076155,9.778847224998149,0.5298207087797218,145.6544972073418,28.211499999999965,31.29950000000009
19900,19900.0,2.34325256,-9.331140199999998,1.85328368,0.08211364759999999,0.27427063,0.200277708,-41.82556165,39.5301054,-134.47479099999998,9.800670542336416,0.35065874599697283,146.2721769474051,28.165402777777746,31.287180555555643
20000,20000.0,1.4083252,-9.2702056,1.27687072,0.02513122568,0.406362916,0.191226192,-40.7308185,39.57855195000001,-135.234375,9.466123265042311,0.4507108913450058,146.67586190759633,28.11930555555553,31.274861111111196
20100,20100.0,2.3278106,-10.4518644,1.84322508,-0.079592897,0.244116212,0.13540649400000002,-39.696044,39.774476,-135.84411799999998,10.866185176630797,0.29714108359456115,147.00836293837688,28.073208333333305,31.26254166666676
20200,20200.0,1.4541687,-11.3581912,-1.3642914000000002,-0.50484924,-0.49241332,-0.122714234,-39.910888,40.0961306,-135.493772,11.543962018758045,0.7252500994201555,146.83054030243474,28.027111111111086,31.25022222222231
20300,20300.0,-0.17748412400000005,-9.724627400000001,-0.37524721,-1.57118226,-0.10370178199999999,-0.67238466,-41.6854854,40.8251948,-130.895694,9.751804645474634,1.7133293691338851,143.3124548581719,27.98101388888886,31.237902777777872
20400,20400.0,0.4362732,-10.8725284,-0.03407897800000001,-1.05665286,-0.17901306399999997,-0.6061310000000001,-43.784484,40.4379272,-126.10351599999998,10.884565512725459,1.233102935259883,139.47960449656756,27.93491666666664,31.225583333333425
20500,20500.0,0.6592926060000001,-8.019116239999999,-0.05394592399999998,-0.1675964372,-0.225881962,-0.44623108,-45.5438238,39.9066162,-123.61358600000001,8.049150672108897,0.5450854517496386,137.64861363585877,27.888819444444408,31.213263888888978
20600,20600.0,0.43951110600000004,-8.536981599999999,-1.32599186,0.299325564,-0.52478942,-0.21112976,-46.832276,39.2352292,-124.13391200000001,8.654426904572992,0.6494578567176343,138.3548070635742,27.842722222222196,31.200944444444538
20700,20700.0,2.4780487,-9.3444308,-3.48627624,-0.006402588000000001,-0.1732543964,0.059027098,-46.868896,39.2526244,-123.78234599999999,10.277055478092707,0.19232466848348265,138.05634819956913,27.796624999999967,31.18862500000009
20800,20800.0,3.033023,-8.793997000000001,-2.01181024,-0.0503997808,-0.204464726,-0.050698852999999995,-46.771882526315785,39.28559915789474,-123.85671657894736,9.520881689737953,0.22850517249417415,138.09950549439372,27.750527777777748,31.17630555555565
20900,20900.0,2.1120612750000003,-8.3693338,-2.6602127,0.392610933,-0.1549362205,-0.2169059778,-47.2946164,38.7426756,-123.59863,9.041683249814133,0.4897318700914883,137.89286456301645,27.704430555555525,31.16398611111121
21000,21000.0,1.51554639,-11.43623695,-3.238332305,0.5552017220000001,0.0287681579,0.511706541,-46.645812799999995,39.2404176,-125.6713856,11.995273165005193,0.7569843245467086,139.6748096805068,27.658333333333307,31.151666666666767
21100,21100.0,-0.06220168999999993,-7.639876565,1.1289367600000002,0.330172735,0.5449775649999999,0.14797668275,-45.71960479999999,39.8092648,-127.115476,7.752993848817681,0.6605060540124102,140.83119161270997,27.612236111111077,31.13934722222232
21200,21200.0,2.533531145,-10.38578355,0.35423583900000005,0.44399415,0.32703017599999995,0.2712059015,-44.4845576,39.7763064,-129.70336799999998,10.714885397121376,0.6203550975333699,142.77262625307083,27.566138888888855,31.127027777777876
21300,21300.0,1.22252732,-10.0676773,1.260593415,0.5177581835,-0.174586484,0.319352721,-43.7707528,39.476318799999994,-131.568298,10.228893157148203,0.6357289516226783,144.16845894946638,27.520041666666643,31.11470833333343
21400,21400.0,2.563758915,-9.353131175,0.55244752,0.369451144,0.48320007,-0.1557647707,-43.2373044,39.369811999999996,-133.941956,9.723206554879756,0.6311834319557755,146.15034897465418,27.47394444444441,31.10238888888899
21500,21500.0,1.16907505,-9.5435635,1.0110626,0.15242767499999998,0.007942198,0.02269745,-43.107299,38.9410404,-135.62652799999998,9.670836448548352,0.1752238442010517,147.54394796660588,27.42784722222219,31.09006944444455
21600,21600.0,1.0538558999999998,-9.126373,0.390953065,0.11993408,0.20316315,0.1289596575,-42.879944,38.8882446,-136.87622000000002,9.198937326015198,0.27252337364760404,148.61392302656338,27.38174999999997,31.0777500000001
21700,21700.0,1.55664065,-9.367583999999999,1.3645019500000002,0.278121945,0.18345642,0.187286375,-41.70869631578947,38.69805589473685,-137.67788789473684,9.596805200143358,0.3825988052488962,148.97100723126422,27.33565277777775,31.065430555555658
21800,21800.0,1.68502805,-9.417572,0.989814735,0.048301696500000005,0.496902465,0.1729126,-40.6109624,38.8264468,-138.872984,9.619076219910603,0.5284216817825674,149.80830249677308,27.289555555555523,31.05311111111121
21900,21900.0,2.488884,-10.06131,1.7215424,0.123931885,0.5032959100000001,0.34307861500000003,-38.7377159,39.004898499999996,-139.89883600000002,10.511283177275846,0.6225828106341947,150.31255494866744,27.2434583333333,31.04079166666677
22000,22000.0,2.8857968421052638,-10.992699315789475,1.5479695894736842,-0.054129349736842115,-0.0925501782105263,0.1353687457894737,-37.408607789473685,39.54837263157895,-140.75606263157894,11.4724157382467,0.19655593109674946,150.91644165484016,27.19736111111108,31.028472222222327
22100,22100.0,0.45854109,-10.0660966,-1.7227615400000005,-1.226618215,-0.210273743,-0.461415869,-38.5011285,40.57922345,-138.68179700000002,10.229027646104614,1.3281347053042782,149.53816302550496,27.151263888888856,31.016152777777886
22200,22200.0,-0.4768596484210527,-11.382389736842105,0.4332829510526316,-1.6669375578947367,-0.07186247231578947,-0.5342921052631578,-40.7245631,42.5592807,-133.5079215,11.4084870415697,1.7520467658252918,145.92534669565453,27.105166666666637,31.00383333333344
22300,22300.0,0.7526903757894736,-9.190871368421053,-0.40658327368421054,-0.8763459894736843,-0.12843322789473682,-0.5541984184210526,-42.75978085,43.31420915,-129.0866135,9.23139203115371,1.0470925252189094,142.7161425851009,27.059069444444408,30.991513888889
22400,22400.0,1.615834035,-8.779930300000002,-1.312518285,0.2145278941,-0.307958231,-0.6677581795,-45.50865155,43.1060799,-128.527835,9.023831966645695,0.7673154169299867,142.9989199102681,27.01297222222219,30.979194444444552
22500,22500.0,1.6220309947368419,-8.503174263157895,-2.6582600473684206,0.03092555,-0.5281821757894737,-0.3522949168421053,-47.7599345,42.36099175,-128.44360650000002,9.056548954005198,0.6358636382663346,143.43371516573205,26.966874999999966,30.96687500000011
22600,22600.0,2.6555786,-8.298278999999999,-2.176529,0.1407013,0.041503906,-0.055603027,-48.54354775,42.10815445,-128.2070895,8.980579633323229,0.15687933785718744,143.41075052893552,26.920777777777747,30.954555555555665
22700,22700.0,3.0817412999999996,-8.216873,-2.5739593999999997,0.31434629999999997,-0.32388306,0.14147949,-48.5456852,42.42958125,-129.050519,9.145457797787,0.4730013519740866,144.2601522625978,26.87468055555552,30.942236111111217
22800,22800.0,2.33074567,-9.2975523,-2.48489529,0.5643097025,-0.36325073049999995,0.2800102225,-48.06449845,42.682266299999995,-130.0206015,9.904389826097876,0.7286240368433637,145.04254641971744,26.828583333333302,30.929916666666774
22900,22900.0,3.48480834,-11.56145645,-3.97589105,0.08914032300000001,-0.337622069,0.052528381,-47.19398515,43.38066105,-131.6654995,12.719407105511939,0.40360215147921896,146.441036172172,26.78248611111108,30.917597222222327
23000,23000.0,-0.188737488,-8.410204799999999,0.908641047,0.510026546,0.234529116,0.48140258799999996,-46.403046100000005,43.574524,-133.9266175,8.474092393618541,0.7398814904078109,148.2846276882145,26.73638888888885,30.90527777777789
23100,23100.0,1.08491289,-9.7882494,0.045649718600000035,0.41085281,0.346759036,0.040860748,-44.984664,43.4252164,-136.1506675,9.855237515292984,0.5425014934944273,149.8212554715276,26.690291666666628,30.89295833333345
23200,23200.0,2.0858697,-10.0206061,0.80054702,0.59248579,0.01593170235,-0.0380706787,-44.7663115,43.3939359,-138.118214,10.27126712545678,0.5966732149123837,151.53780720311428,26.64419444444441,30.880638888889003
23300,23300.0,0.872555545,-9.3046135,0.523832694,0.234932711,0.2788970925,-0.022302247,-44.99938955,42.52174405,-139.6858195,9.361261397130377,0.36793995940549895,152.79137532641943,26.59809722222219,30.868319444444555
23400,23400.0,1.575306735,-9.58965155,1.179789765,0.2882461555,0.2823570275,0.1975585925,-44.1018684,42.557449,-141.572645,9.789795198029491,0.44937576841458615,154.26930013000413,26.551999999999968,30.856000000000115
23500,23500.0,2.29763794,-9.675415199999998,0.38958130399999996,0.1321807868,0.428622436,0.26546935800000004,-42.9000084,42.45803815,-143.14529299999995,9.956436657866528,0.5213876989933506,155.35019814459937,26.505902777777738,30.84368055555567
23600,23600.0,1.68232728,-9.577734199999998,1.1430328399999998,0.08786010600000001,0.25817871200000003,0.08310241480000001,-41.57257055,42.63793925,-143.9313535,9.791987361859107,0.2851935855809783,155.7643422407632,26.45980555555552,30.83136111111123
23700,23700.0,1.92127076,-9.577493400000002,1.07503662,-0.0016113281,0.58692014,0.14297179799999998,-40.6561292,42.9728696,-144.739071,9.830525167753864,0.6041373728186734,156.3619124829833,26.413708333333297,30.819041666666784
23800,23800.0,2.6115173,-10.7212064,1.81053772,-0.028036498599999998,0.21024780199999998,0.185791018,-39.04052720000001,43.202819700000006,-145.542909,11.183278585676945,0.28631652606404434,156.7590639624062,26.367611111111074,30.806722222222337
23900,23900.0,1.08881226,-11.2637392,-1.1716796999999999,-0.450091552,-0.20201721,-0.148919678,-39.44946160000001,43.86444,-144.493255,11.378956582937544,0.5233154773097212,156.07286709021645,26.321513888888852,30.794402777777897
24000,24000.0,-0.16838455149999998,-9.3122215,-0.82559585,-1.6609192,-0.119613645,-0.62498475,-41.305999,45.9332277,-140.89630400000001,9.361095790531325,1.7786512508792405,153.84503414974938,26.275416666666626,30.78208333333345
24100,24100.0,0.590274825,-11.37721275,-0.24590683,-1.276630375,-0.023742676000000004,-0.5839691125,-44.169159,47.3809815,-134.431151,11.397337353355367,1.4049817759419052,149.22380907583212,26.229319444444407,30.769763888889013
24200,24200.0,1.702980075,-8.034015825,-0.604431175,-0.15703582500000002,-0.14598465,-0.6537399374999999,-46.71539310000001,46.9644167,-131.155849,8.236361339189813,0.7001265710364329,146.93506493833038,26.183222222222184,30.75744444444457
24300,24300.0,0.60733413,-8.2189635,-2.53446195,0.071723937,-0.5497169375,-0.41939163,-49.5046995,45.990601,-129.805301,8.6223003212815,0.6965939556648477,146.33995504384242,26.137124999999962,30.74512500000012
24400,24400.0,2.518207575,-8.0594595,-1.717731475,0.11567306625,-0.052768707250000005,-0.01058578575,-50.882262,45.057983,-129.08859099999998,8.616697030095146,0.13395075669850226,145.88732621242463,26.09102777777774,30.73280555555568
24500,24500.0,3.993633225,-8.97015025,-3.3861961000000003,0.3345794625,-0.42082596,0.10898208674999997,-50.816497999999996,45.437469899999996,-129.322052,10.386786704861308,0.55009066053876,146.18851668979613,26.04493055555552,30.720486111111235
24600,24600.0,2.573577925,-9.0165365,-3.44664765,0.16866302249999998,-0.20031357,-0.11765289,-51.5263375,44.552153499999996,-129.59975899999998,9.991556553290367,0.2879997603210825,146.4103224402516,25.998833333333287,30.708166666666788
24700,24700.0,1.348640475,-10.4369015,-2.327064525,0.7361831625,0.046833038149999985,0.64588165,-51.0957339,44.6035768,-131.065066,10.778377387199717,0.9814220112399026,147.57502530925075,25.95273611111107,30.69584722222235
24800,24800.0,1.028415695,-8.031025074999999,-0.7439003000000001,0.16067504500000002,0.6138153000000001,0.1111183185,-49.8820489,45.22445610000001,-131.754149,8.242764233853375,0.6450485247668186,147.96162513902192,25.90663888888885,30.683527777777904
24900,24900.0,1.862796825,-9.93861025,-0.8202057049999999,0.514083865,0.416740415,0.35319137500000003,-48.819122,44.91302520000001,-135.63858000000002,10.16452952349242,0.7636654370270709,150.99178128599948,25.860541666666627,30.67120833333346
25000,25000.0,1.5802803,-9.84343725,0.924861895,0.4512290925,-0.236534115,0.268768315,-48.0931086,44.39514129999999,-137.355499,10.023592605446817,0.5769519177683491,152.15262601221332,25.81444444444441,30.658888888889017
25100,25100.0,2.0109329,-9.88084425,0.06833648749999999,0.3897132875,0.213016515,-0.147483825,-47.96279910000001,43.6926268,-139.24010900000002,10.085286767463096,0.4690413151903942,153.61410416313672,25.768347222222186,30.64656944444457
25200,25200.0,1.978614825,-9.48400125,0.7943763775,0.1521492025,0.0945014945,-0.02070999175,-48.2394419,42.9515075,-140.50766399999998,9.720994496795925,0.1805106676059628,154.64251941049343,25.722249999999963,30.63425000000013
25300,25300.0,0.9709510725,-9.621666,0.37809372,0.1929016125,0.1592140225,0.16330719,-47.8596499,42.4226381,-141.30447800000005,9.679098018800431,0.2998485731982627,155.10385857330328,25.676152777777734,30.621930555555693
25400,25400.0,1.8825455000000002,-9.2209435,1.341453525,0.2664032025,0.133113865,0.28129577,-46.924310315789484,42.383536578947364,-142.27978000000002,9.507120340636302,0.4101709152796302,155.69782244797912,25.630055555555515,30.609611111111242
25500,25500.0,1.4618286,-9.421402,1.110467514,0.200152584,0.29375305,0.28634644,-45.51086428571429,42.36711714285715,-143.56079142857143,9.60055559647966,0.4567014576490655,156.44808615951214,25.58395833333329,30.5972916666668
25600,25600.0,2.2605346600000003,-9.581323199999998,1.68532102,0.06527709999999999,0.57626952,0.327471928,-43.840790000000005,42.660903999999995,-145.0984975,9.989216080914778,0.6664797150070039,157.46610580713156,25.53786111111107,30.58497222222236
25700,25700.0,1.96730192,-11.14743225,1.888948795,-0.0068344114,0.05108718825,0.09673843401,-42.107391,42.556764,-145.30792250000002,11.483392033552544,0.12657385925694478,157.15765957393126,25.49176388888885,30.57265277777791
25800,25800.0,0.77007601,-10.3379569,-1.132958235,-0.640618915,0.2162086505,-0.134958646,-42.25120525,42.93327425,-144.4355,10.430892800561725,0.6902547750518969,156.49300796124692,25.44566666666663,30.560333333333467
25900,25900.0,0.1586029035,-9.49663925,-0.93106611,-1.60185016,-0.243827822,-0.6317970254999999,-43.67218,44.482040500000004,-139.4836425,9.551614187418403,1.7392472180087175,152.78055593315682,25.39956944444441,30.54801388888902
26000,26000.0,-0.137625125,-10.672842,0.429684448,-1.1742538359999999,0.16400757300000002,-0.46561279200000005,-46.00715625,45.178222999999996,-133.05015500000002,10.686976891477952,1.2739489573078504,147.85162240415264,25.35347222222218,30.53569444444458
26100,26100.0,1.73955689,-7.98080564,-0.36459808200000005,-0.026225281000000003,-0.376290897,-0.5335876420000001,-47.94464125,44.75364575,-130.74913,8.178978358944747,0.6566204098644289,146.27736818885046,25.30737499999996,30.52337500000014
26200,26200.0,0.98681641,-8.9061675,-2.39439397,0.0596420287,-0.71578979,-0.334161384,-49.732208,43.3597575,-128.949355,9.276465916416685,0.7923418545461621,144.8493760794566,25.261277777777728,30.511055555555693
26300,26300.0,1.93096313,-8.565171000000001,-2.1564171450000003,-0.06409683229999999,0.03980026235,-0.334378054,-51.35765050000001,42.44232225,-128.12156249999998,9.043453195239637,0.34373655835181616,144.4098413467811,25.215180555555516,30.49873611111125
26400,26400.0,2.728898665,-8.5906066,-2.691640485,0.21926421850000002,-0.268016048,0.070579531,-51.721573,42.160034,-128.02391125,9.407878938930887,0.3545994346507308,144.37015272221717,25.169083333333287,30.486416666666802
26500,26500.0,2.45458073,-8.995824749999997,-2.75688245,0.47018433299999995,-0.01772766085,0.08144531299999999,-51.392473428571435,41.52679571428572,-129.01131999999998,9.723755140118028,0.4779361699747687,144.94690953066018,25.122986111111068,30.474097222222362
26600,26600.0,1.669275655,-10.76436895,-1.9666794,0.638341525,-0.07977600130000001,0.458654018,-50.984038899999994,41.2948596,-130.531156,11.07174186482828,0.7919847114206502,146.0927193577774,25.076888888888845,30.461777777777918
26700,26700.0,0.03691863749999999,-8.66111485,-0.9043708875,0.160250858,0.7492187459999999,-0.0008949279500000025,-50.027846999999994,41.54891975,-131.331255,8.736035480978433,0.7673046291674575,146.55033274865275,25.030791666666627,30.449458333333478
26800,26800.0,2.00082323,-9.2465565,0.490322876,0.37405014299999995,0.6847671695,0.29130020199999995,-48.74572725,41.4321895,-133.40034,9.474893819087633,0.8339956610494623,147.94750161337413,24.9846944444444,30.43713888888903
26900,26900.0,2.6163146800000003,-9.9926579,1.376534291,0.5240425249999999,-0.4098480255,0.36869277549999996,-47.82638675000001,40.937805,-135.3706325,10.43109254776015,0.7622065948011931,149.29333465465268,24.938597222222175,30.42481944444459
27000,27000.0,1.62067334,-9.5057273,0.2522125235,0.3719245925,0.0296203613,-0.219322965,-47.82447825,39.8052225,-136.30142,9.646424124637893,0.4359518789442217,149.83246862835475,24.892499999999963,30.412500000000144
27100,27100.0,1.62445372,-10.0534662,0.840708945,0.23375854850000002,0.1182586635,0.00564956662,-48.12011725,39.22004725,-137.43552749999998,10.219259586764963,0.2622623081240687,150.80570944767084,24.84640277777773,30.4001805555557
27200,27200.0,1.751827205,-9.29850925,0.637263476,0.0009933472500000006,0.35788878799999996,0.163367459,-47.270204,38.7470245,-138.64669500000002,9.487155361949668,0.3938196566793216,151.52164243418795,24.80030555555551,30.387861111111256
27300,27300.0,1.37132262,-9.319879499999999,1.45883482,0.18395386,0.163797,0.24885559399999999,-46.07734675,39.07356275,-139.0892025,9.532905220442697,0.3502401985664335,151.6434278965604,24.75420833333329,30.37554166666681
27400,27400.0,1.22766726,-9.754672,0.637615966,0.1225982648,0.42776488799999995,0.275054936,-45.00579825,38.66768,-139.86893,9.85234089176802,0.5239243546187753,151.93494140654252,24.70811111111107,30.363222222222372
27500,27500.0,3.4617065,-10.0589752,1.26250306,-0.0150390624,0.41775818,0.198147586,-43.06183,39.323425,-140.89966,10.713463679235065,0.46300120510124,152.49054772278552,24.662013888888847,30.350902777777925
27600,27600.0,1.76038206,-11.52063,-0.55397644,-0.330148316,-0.5767791800000001,-0.16893921,-42.614745500000005,39.33906500000001,-139.51873500000002,11.673929603815393,0.6916100781238501,151.09296168037727,24.61591666666662,30.33858333333348
27700,27700.0,-0.713305668,-9.880838,-0.356695558,-1.4318359399999998,-0.17666015799999998,-0.5100341660000001,-44.0353395,40.11001575,-135.30693250000002,9.91794225681201,1.530399716450333,147.83781014290585,24.5698194444444,30.32626388888904
27800,27800.0,0.589141848,-11.0130588,-0.503695676,-1.20259098,-0.265512084,-0.465933224,-45.4448685,40.44799925,-129.49028,11.040520973324108,1.317544327753002,143.07048438726596,24.523722222222176,30.313944444444594
27900,27900.0,1.58823854,-8.4699434,-0.14408264199999998,-0.1665222156,-0.32324218600000004,-0.38731994,-46.549225,39.89906325,-126.93214750000001,8.620238212368335,0.5419153763682054,140.96309277060934,24.477624999999954,30.301625000000147
28000,28000.0,0.80270082,-8.7483852,-2.5512177000000005,-0.075332642,-0.64793396,-0.46913757799999994,-48.09799175,39.190674,-125.35438375,9.14889517170492,0.8038854707371296,139.86802522683766,24.431527777777728,30.28930555555571
28100,28100.0,1.68568722,-8.332993,-2.08889768,-0.166732789,-0.049475097800000006,-0.221780396,-49.1113294,38.5281376,-123.92212,8.75561713281396,0.28303450119721185,138.7553948066039,24.385430555555512,30.276986111111263
28200,28200.0,2.30242624,-8.621490399999999,-2.5191345000000003,0.249780272,-0.286596676,0.161721798,-49.01123,38.4310908,-123.572084,9.2771225586318,0.4138439010075986,138.38051395533273,24.339333333333286,30.264666666666823
28300,28300.0,2.8897216400000003,-8.987573199999998,-3.26588748,0.42853393799999995,0.0314880368,0.007247925,-48.60717860000001,38.339233,-124.762266,9.990823082176961,0.4298035737492728,139.27734550600235,24.293236111111067,30.252347222222376
28400,28400.0,1.37137985,-9.672554000000002,-2.165153525,0.487709045,-0.0293426515,0.2514686625,-48.397216799999995,38.0966174,-125.8795148,10.006443209276814,0.5501427047870624,140.14032686718946,24.24713888888884,30.24002777777793
28500,28500.0,1.74697495,-10.19507975,-2.136421225,0.176925655,0.2700004575,-0.02391052225,-47.8588852,38.381652,-126.95434399999999,10.574424962866539,0.3247019432178908,141.000150705456,24.201041666666622,30.22770833333349
28600,28600.0,1.7203369,-8.82889175,-0.764839175,0.5231285075,0.279052735,0.3007278425,-47.049255,38.4988402,-128.70361200000002,9.031394366935485,0.6679147841561199,142.33959553319718,24.1549444444444,30.215388888889045
28700,28700.0,0.17637634224999998,-9.95895,0.288909915,0.3889083825,0.0034141525000000034,0.1571922275,-46.770934999999994,38.47015500000001,-131.19903399999998,9.972681873214453,0.4323607098370165,144.50147174217057,24.10884722222217,30.203069444444605
28800,28800.0,2.03816605,-10.079566499999999,0.6519241375,0.48424529999999993,0.12911605874999998,-0.03588867175,-46.051941,38.45031779999999,-131.954648,10.306861485205047,0.504278370898036,144.95255895056943,24.062749999999948,30.19075000000016
28900,28900.0,1.2684326000000001,-9.1880185,0.55376055,0.2437705975,0.2218017575,-0.05533218375,-46.058046,37.9266364,-133.537598,9.292813833669184,0.3358367296856287,146.26031459042127,24.01665277777773,30.178430555555714
29000,29000.0,2.0013542500000003,-9.9245415,-0.09057998675000001,0.24962998,0.12379837,0.1537323025,-45.669153157894726,37.74695142105264,-134.69069789473684,10.125682285601195,0.3183920700579157,147.146498751752,23.97055555555551,30.16611111111127
29100,29100.0,1.67790676,-9.2645706,0.989802519,0.249993901,0.11809692330000003,0.327789306,-44.602585299999994,38.06587215,-135.90438600000002,9.46927576172534,0.4334151737338852,148.01488436109298,23.924458333333288,30.153791666666827
29200,29200.0,1.5465866000000001,-9.5748611,1.029428091,0.285368348,0.116604616,0.275805664,-43.5604855,38.023451,-136.3664275,9.754367113500603,0.415468015280682,148.11862110139447,23.878361111111058,30.141472222222387
29300,29300.0,2.32170103,-9.5880385,0.6197875850000001,0.06634216312,0.5968261890000001,0.23138275,-41.720352399999996,38.2182315,-137.90916,9.89194088231829,0.6451021864329796,149.0646756141493,23.83226388888884,30.129152777777943
29400,29400.0,2.6066162,-10.5477523,2.04146426,-0.010455322679999999,0.09284973619999999,0.10514984349999999,-40.58723300000001,38.4980779,-138.42819599999999,11.055798151696461,0.17124128026081428,149.30440480332203,23.786166666666613,30.116833333333496
29500,29500.0,0.589741516,-11.2160843,-1.41218261,-0.45883025,-0.251545713,-0.210697938,-40.79177795,38.33595315,-137.8277605,11.324730926992807,0.5686762934026042,148.7619364438065,23.740069444444394,30.104513888889052
29600,29600.0,-0.473879993,-9.778133,-0.8257141299999999,-1.62359317,-0.509883134,-0.68601532,-42.16446079999999,39.473647,-133.195642,9.834478509769344,1.8351555910783155,145.17995627898236,23.693972222222172,30.09219444444461
29700,29700.0,0.24784394199999998,-11.47519785,-0.5839561440000001,-1.20115583,0.009014891749999995,-0.673982235,-44.201507899999996,39.814071399999996,-127.943114,11.493171942658925,1.3803625695017592,141.09731908786043,23.647874999999946,30.07987500000016
29800,29800.0,2.079891985,-8.05562531,-0.5309288055,-0.1967674255,-0.274716947,-0.607726305,-45.65155155,39.23675555000001,-126.08306699999999,8.343989250882139,0.7048110553001864,139.716058736105,23.60177777777773,30.06755555555572
29900,29900.0,0.5116249095000001,-8.3747703,-1.903649155,0.08136978122499999,-0.63552248,-0.2499511755,-47.284164600000004,38.4399425,-124.66797,8.61141947504756,0.6921650630518104,138.764402387655,23.555680555555504,30.055236111111284
30000,30000.0,1.988733695,-8.268946399999999,-2.53266375,0.06272354100000001,-0.07972564515,-0.122233583,-47.38037095,38.6095429,-123.369445,8.876101337926691,0.16156148160557954,137.67941272549774,23.509583333333282,30.042916666666837
30100,30100.0,3.20169602,-8.602694549999999,-3.496982575,0.213410187,-0.342997744,0.1172370935,-47.170866499999995,38.57170145,-123.5345456,9.823194147350481,0.42195825836557344,137.7449371681129,23.46348611111106,30.03059722222239
30200,30200.0,2.164521765,-8.2998977,-2.760888705,0.35119781549999995,-0.0944778444,0.121125795,-46.7600251,38.78799395,-124.820249,9.011440952664165,0.38403046415744335,138.82045756620198,23.41738888888884,30.018277777777943
30300,30300.0,1.78677824,-11.23452695,-2.82032392,0.7397048959999999,0.05114517175000001,0.6213226279999999,-45.39512605,39.41070560000001,-126.29470825,11.725673876015508,0.9746619536830484,139.87250686770813,23.371291666666608,30.005958333333503
30400,30400.0,-0.0034301740000000076,-7.44761344,-0.07585142999999994,0.254043578,0.9303588840000001,-0.037908937704,-44.487075899999994,40.33096275,-127.889403,7.544313461036318,0.9658560019228191,141.28483997121518,23.32519444444439,29.99363888888906
30500,30500.0,2.52749022,-10.868451199999999,-0.40457458399999996,0.47349242799999997,0.38026122799999995,0.410562132,-43.25050345,40.657424799999994,-130.58204400000002,11.168206136435204,0.7368475936205792,143.44101093094085,23.27909722222217,29.98131944444461
30600,30600.0,2.06995846,-10.117629800000001,1.120291152,0.5474243000000001,-0.314297486,0.0939636248,-42.64205905,40.367201,-132.1884905,10.401641692528248,0.6395535150473138,144.64321511845498,23.232999999999947,29.96900000000017
30700,30700.0,0.333676148,-9.3519622,0.443685912,0.32243348,0.186160278,-0.135705566,-42.6824185,40.087587,-134.34142649999998,9.370104841320364,0.3971890218176167,146.54846289375482,23.186902777777725,29.95668055555573
30800,30800.0,1.64880984,-9.328979400000001,1.31110532,0.156683352,0.375784302,0.096310424,-42.27230678947368,39.7875332631579,-135.35292894736844,9.56427488957894,0.4189136571424045,147.2766685551418,23.140805555555506,29.944361111111284
30900,30900.0,1.506839,-9.365606800000002,0.6096069199999999,0.18864136,0.263714598,0.207528688,-41.310773714285716,39.82173371428571,-136.65814714285716,9.506788081475086,0.3853995438374415,148.21544778767583,23.094708333333283,29.93204166666684
31000,31000.0,2.01752014,-9.735992199999998,1.56799928,0.12408142039999999,0.20810852,0.245660398,-39.95208770000001,40.2185061,-137.47298899999998,10.070212720803463,0.3467929840620033,148.70283755931558,23.048611111111054,29.9197222222224
31100,31100.0,1.49049301,-9.46371305,1.399992405,0.08547134325,0.461800383,0.281718444,-38.784944,40.507355100000005,-138.00933999999998,9.682826481754725,0.5480769854296653,148.9688076038994,23.002513888888835,29.907402777777953
31200,31200.0,2.50850828,-10.00492365,1.64587555,-0.02031631448,0.244115447,0.2287803645,-36.6633604,40.6887816,-139.002381,10.445364081907362,0.3371197186985387,149.4037237364453,22.95641666666661,29.89508333333351
31300,31300.0,0.87207183,-11.0153944,-0.20184326675,-0.189420321,-0.336929317,-0.06571884185,-36.5286256,41.160432,-138.922271,11.054821849783542,0.40080087738621134,149.42530241633247,22.91031944444439,29.882763888889066
31400,31400.0,1.05756455,-9.2435693,-0.4813690252499999,-1.35439608,-0.3333114665,-0.5651146025,-37.5248718,42.2740177,-134.531251,9.33319440531574,1.506760371593264,145.92439314630948,22.86422222222217,29.870444444444622
31500,31500.0,0.21396178899999999,-11.042687800000001,-0.08495483220000002,-1.16861799,-0.1471008325,-0.4200294435,-39.5426939,43.0418394,-129.640199,11.047214208822444,1.2513905278382262,142.2070489936,22.81812499999995,29.858125000000182
31600,31600.0,0.803656763,-9.24458695,-1.00204847,-0.5778686559999999,0.1322097775,-0.38556366299999995,-40.756226,43.3845513,-126.4053344,9.33654545345651,0.7112307963634674,139.71974395196864,22.772027777777723,29.84580555555573
31700,31700.0,1.35672,-8.701698500000001,-1.4624481500000002,-0.012695312350000001,-0.530540465,-0.42737579,-42.5550843,43.1915281,-125.0859074,8.932724139877111,0.6824045492308151,139.0070921468832,22.7259305555555,29.833486111111288
31800,31800.0,1.7086716000000002,-8.681946,-2.9432678,-0.1075057975,-0.32015229,-0.39382172,-43.642579,42.413177399999995,-123.313598,9.328946009333515,0.5206837413468142,137.51295619369256,22.67983333333328,29.82116666666685
31900,31900.0,2.24018095,-7.95351415,-1.9598541,0.071456911,-0.1997757,-0.072105407,-44.54742460000001,42.2364808,-122.8837585,8.492796968456524,0.2343011506706245,137.363876294048,22.633736111111048,29.808847222222404
32000,32000.0,3.1691284,-8.7944715,-3.19346625,0.5204696799999999,-0.388336185,0.142539975,-44.3482975,42.644805600000005,-123.42483600000001,9.878975336489189,0.6652303727604405,137.9095669459102,22.587638888888836,29.796527777777964
32100,32100.0,0.594764704,-8.814827000000003,-1.54565425,0.45549011,0.443641655,0.17502594,-44.16320770000001,42.962798,-124.7937024,9.039731597120193,0.6738577381833996,139.17494725413474,22.541541666666607,29.78420833333352
32200,32200.0,2.82077025,-10.058014,-1.81739042,0.0682678225,0.37386322,0.08129119750000001,-42.9032896,43.5276791,-125.86456399999999,10.775665754301189,0.5813531268540215,139.9186906009765,22.495444444444384,29.771888888889073
32300,32300.0,1.6277658894736842,-9.310900368421056,0.3916296705263158,0.5434289157894737,0.020814594421052632,0.4123342410526316,-42.1633909,43.8066105,-127.632754,9.48590109462708,0.6831151836478753,141.3750250528233,22.449347222222165,29.75956944444463
32400,32400.0,0.7831901535000001,-9.993008575,0.57058181525,0.354880524,0.07021331925,0.0682373034,-41.46118,43.697509,-129.723815,10.048978316100671,0.3843878669041176,143.02717508076162,22.403249999999947,29.747250000000186
32500,32500.0,1.419325215,-9.5330885,-0.036112214,0.433383179,0.31027221650000003,-0.109664156,-41.450958299999996,43.3833312,-131.599423,9.638797652155382,0.5485056928930637,144.63306576280198,22.35715277777772,29.734930555555746
32600,32600.0,1.439440925,-9.50172205,0.7336227375,0.218735504,0.3255538925,0.10083846949999999,-41.4466854,43.15246629999999,-132.82196000000002,9.639623382395856,0.4057019999730055,145.6764856884613,22.311055555555495,29.722611111111302
32700,32700.0,2.115142045,-9.7856747,0.591535183,0.22986679350000003,0.2605796825,0.1848381035,-40.4243459,43.1515495,-134.19212399999998,10.030039908261296,0.3937545659619048,146.64145843299434,22.264958333333283,29.71029166666685
32800,32800.0,1.51821059,-9.42726225,1.027039345,0.1571578995,0.180735778,0.17503204649999998,-39.54223565,43.052521999999996,-134.4087215,9.604421585893736,0.29692446684536,146.5701766660324,22.21886111111105,29.697972222222408
32900,32900.0,1.861598215,-9.51549385,1.1011353000000002,0.0530296329,0.24965057149999997,0.14424286,-38.5604097,43.05557285,-135.37094299999998,9.75822315484573,0.2932895147230018,147.19368173015025,22.172763888888827,29.685652777777968
33000,33000.0,1.74529724,-9.9181976,1.5725586,0.0037048338000000014,0.38793029799999995,0.23500366,-37.7826691,42.8760527,-135.39893650000002,10.19430837723574,0.45387365979558103,146.9651654492326,22.12666666666661,29.673333333333527
33100,33100.0,1.92916872,-10.2864198,1.21940616,-0.07085571480000001,0.10606079,0.23692627,-36.315917999999996,43.237305,-135.45074,10.537705157776868,0.2699599380434583,146.74881059277226,22.080569444444386,29.66101388888908
33200,33200.0,2.76571048,-10.3276004,-1.15061036,-0.625436404,-0.33943786,-0.16851501559999998,-35.823515500000006,43.228302500000005,-133.9031985,10.75754955285882,0.7320879240227331,145.1966901866315,22.034472222222167,29.648694444444644
33300,33300.0,-0.273971556,-10.208609,-1.2379974800000002,-1.65810242,-0.457675168,-0.7563324159999999,-37.90451085,43.5031128,-127.9856085,10.298728534573256,1.879567473871816,140.3910134429287,21.988374999999944,29.636375000000196
33400,33400.0,1.202767972,-11.1524046,-0.8429565520000001,-1.171698,-0.0388214112,-0.48233948,-39.93507385,42.9282395,-121.5148925,11.273607712923276,1.2677902742868867,134.92044461588193,21.94227777777772,29.62405555555575
33500,33500.0,1.31481934,-7.79382018,-0.93800658,0.023309326,-0.632385258,-0.56479187,-41.5521243,41.877671299999996,-119.6250935,7.961943703768628,0.8532159444904059,133.3810346236046,21.896180555555496,29.611736111111302
33600,33600.0,0.3987828273684211,-8.133646684210527,-1.8814063157894736,0.3298139073684211,-0.5217983994736842,-0.20702803368421047,-41.9696792,40.936813,-118.3309173,8.358856022156754,0.6519932202993338,132.05864170470846,21.850083333333274,29.599416666666865
33700,33700.0,2.709443685,-9.346938900000001,-3.291804475,0.15556411750000002,0.021686553750000004,0.080172727,-41.5982053,41.2065125,-118.81813075,10.275997340432312,0.181247405656946,132.4618518007875,21.80398611111105,29.587097222222422
33800,33800.0,3.80562746,-9.213098225,-3.33316196,0.228321838,-0.120102695,-0.0737129212,-41.19186420000001,40.738372999999996,-118.3569333,10.512407506248076,0.2693607554738183,131.77537300206302,21.757888888888825,29.574777777777967
33900,33900.0,2.036618025,-7.528301255,-2.16431575,0.38134765600000003,-0.256932832,-0.07365722525,-41.3774125,40.164337550000006,-118.992461,8.09489308220614,0.4716689131191159,132.22886829322118,21.711791666666606,29.56245833333353
34000,34000.0,2.5628006,-13.44221845,-3.615138245,0.737143689,-0.5299064665,0.3938942,-40.0284579,40.43525705,-121.057126,14.172917971567376,0.9987349583436808,133.76142544323108,21.665694444444384,29.550138888889087
34100,34100.0,-1.4989669805,-7.4047592400000015,2.11364062,0.052761840050000015,0.6087509075,0.09252395525,-39.647752,40.07911675,-121.387326,7.97276750674281,0.6280467658415706,133.84010021821558,21.61959722222216,29.537819444444647
34200,34200.0,2.501506815,-10.35704645,0.012195587100000016,0.5865127689999999,0.3331657355,0.209017178,-38.86390720000001,40.5422972,-123.151852,10.655511183113836,0.7133643786569834,135.35310613060136,21.573499999999942,29.5255000000002
34300,34300.0,2.00166394,-10.2691207,0.5436485295,0.535596466,-0.3840629595,0.14845276200000002,-38.67149385,40.81985435,-124.009857,10.477167339929267,0.6846457328913717,136.16238461237046,21.52740277777772,29.513180555555763
34400,34400.0,1.29171755,-9.0906356,0.2826766968,0.220915223,0.311764521,-0.129104614,-38.97079475,40.1795956,-125.7644635,9.187479589048902,0.4047530224308583,137.65837448724957,21.48130555555549,29.500861111111316
34500,34500.0,1.4445892299999998,-9.741745300000002,0.84687806,0.219218445,0.335516359,0.189732365,-39.19699552380953,40.37184776190476,-126.99824666666666,9.885785168399677,0.4446422879113983,138.9059162803133,21.43520833333327,29.48854166666687
34600,34600.0,1.66772765,-9.5243442,0.33678740799999995,0.302304081,0.25966643899999997,0.349519346,-38.600159999999995,40.284729999999996,-128.45764,9.675601174559043,0.5304752577783921,140.05069474146887,21.38911111111105,29.476222222222425
34700,34700.0,2.58697357,-9.964407099999999,0.342057802,0.199826052,0.32326202299999995,0.24586639600000001,-37.635803,40.759277000000004,-129.93164,10.305065068530519,0.4548318157229988,141.27987613990587,21.34301388888883,29.46390277777798
34800,34800.0,1.9665268,-9.21094655,1.01207579,0.0204360959,0.68215333,0.160754394,-37.057495,40.760803,-131.22558999999998,9.476426485276491,0.7012040703662265,142.31955757283654,21.296916666666604,29.451583333333534
34900,34900.0,2.7375407894736843,-11.046001105263159,2.0763959315789466,-0.0028317100263157893,0.19216115263157893,0.10694242842105264,-36.6745,41.329956,-131.88782,11.568696550579114,0.22022398847292968,142.99503934600085,21.250819444444378,29.439263888889087
35000,35000.0,0.7288436875,-11.26079575,-1.923042275,-0.635341645,-0.13559341749999998,-0.13842392,-37.159729999999996,41.331482,-131.55518,11.451234654378489,0.6659678343194269,142.81422311108102,21.204722222222163,29.426944444444647
35100,35100.0,-0.6481247000000001,-9.639625500000001,-0.274028775,-1.763721475,-0.477279665,-0.744297025,-39.2807,41.793822999999996,-126.23749,9.695684376454127,1.9737307286746317,138.65641317640316,21.158624999999933,29.41462500000021
35200,35200.0,-0.10643386675000002,-11.07075875,-0.6029319725,-1.15891645,0.2263259875,-0.5152587875,-41.488647,41.589355,-119.7876,11.09132855616998,1.2924843693576324,133.4168332444097,21.112527777777714,29.402305555555763
35300,35300.0,1.344753225,-7.71319585,-0.44461441,0.06373596200000001,-0.30151368,-0.526714325,-43.623352000000004,40.554809999999996,-118.58368,7.843055937146183,0.6201902979563234,132.70184104297277,21.06643055555549,29.389986111111323
35400,35400.0,1.037094125,-8.535903999999999,-2.393795025,0.141765595,-0.57715225,-0.167980195,-44.796753,40.374756,-118.86291499999999,8.927672473649721,0.617774544936774,133.2863930178162,21.02033333333327,29.37766666666688
35500,35500.0,2.35271302,-8.682308800000001,-3.1468933,0.120895386,0.058126832,0.0767059308,-45.385742,40.852356,-119.0155,9.530445516257169,0.17131892420843348,133.7664749026874,20.974236111111047,29.36534722222243
35600,35600.0,3.66186226,-9.0644255,-2.91322632,0.22847900399999999,-0.398236084,-0.012780761599999996,-45.588684,41.801453,-119.34966999999999,10.201297315403878,0.4604279053997093,134.42482401279895,20.928138888888824,29.353027777777985
35700,35700.0,1.61577456,-8.556609800000002,-2.63979796,0.493093868,-0.05586242880000003,-0.0287506104,-46.376038,42.1875,-119.97223000000001,9.111508511328982,0.5229586176294477,135.36564567127195,20.882041666666602,29.340708333333545
35800,35800.0,4.64420162,-13.7010346,-4.67128588,0.090423584,-0.71355897,0.37497864,-45.42389,43.896484,-122.27325400000001,15.249479860363953,0.8246074241008196,137.62623199827448,20.83594444444438,29.3283888888891
35900,35900.0,-1.23451844,-8.07082554,0.17409973600000006,0.6588501,0.296307374,0.12336731400000002,-46.121216,44.381714,-124.017334,8.21421852170907,0.7646630664252523,139.56074747350706,20.78984722222216,29.316069444444658
36000,36000.0,0.550592048,-9.7912994,0.104672241,0.462628176,0.584359732,0.02599792472,-45.166016,45.14618,-126.93481399999999,9.830568049116547,0.747545178047913,142.093608494961,20.743749999999935,29.30375000000021
36100,36100.0,2.7894104,-10.0757322,0.73459166,0.522283944,0.01231384399999999,0.219238278,-44.89441,46.669006,-128.89099,10.482366972952565,0.5753805649007243,144.2442077639731,20.69765277777771,29.291430555555767
36200,36200.0,0.93150942,-9.456589,0.21408081,0.318383792,0.29588928000000003,-0.077545166,-44.60907,46.768190000000004,-130.33751999999998,9.504843905435225,0.4433228723008136,145.48230765935563,20.65155555555549,29.279111111111327
36300,36300.0,1.57793888,-9.6835632,1.01518558,0.160726926,0.424148562,0.175134276,-43.83232105,47.34535175,-131.34712050000002,9.863891757470537,0.4865102291401327,146.33838485991132,20.605458333333267,29.266791666666883
36400,36400.0,1.83555912,-9.7340728,0.479608156,0.213574218,0.324645994,0.28422241600000003,-42.4707043,47.70797775,-132.66349350000002,9.917770662552936,0.4822488685891652,147.2393211843239,20.55936111111105,29.254472222222443
36500,36500.0,1.9686083428571428,-9.666044142857142,1.3068717142857142,0.14024352714285715,0.16218131,0.20295715714285714,-40.63621565,48.4762573,-133.07159850000002,9.95255484289504,0.2965363153044916,147.34076328458485,20.513263888888822,29.242152777778
36600,36600.0,1.77869723,-9.5958131,0.7397338720000001,0.08723297199999999,0.405720518,0.19516296,-39.64356880952381,49.21860428571429,-133.40526714285716,9.787559944314394,0.4592021402294253,147.61793667324932,20.4671666666666,29.22983333333355
36700,36700.0,2.6960930000000003,-10.59640745,2.06516493,0.0173927307,0.07820510955000001,0.24304351649999997,-38.104248,49.96338,-133.47626,11.127418109922148,0.2694113959385022,147.52689598936698,20.421069444444374,29.21751388888911
36800,36800.0,0.23958511295,-10.9709206,-1.0963798690000002,-0.33865889450000003,-0.435789497,-0.1050811765,-37.998962,50.05188,-132.04651,11.039507972120264,0.5738709738690554,146.23745282174445,20.374972222222155,29.205194444444665
36900,36900.0,0.8922455,-9.340955000000001,-0.547515868,-1.52515868,-0.306628412,-0.534536742,-39.143370000000004,50.320434999999996,-127.07366999999999,9.407915717525078,1.6466121075106304,142.1691499616391,20.328874999999933,29.19287500000022
37000,37000.0,0.014056394000000014,-11.910888400000001,-0.054302975999999996,-1.31955868,0.00187377928,-0.66514282,-41.92047,49.258423,-118.8324,11.912960927355142,1.4778787609024202,135.29544460634227,20.28277777777771,29.180555555555774
37100,37100.0,1.25927738,-8.7979492,-0.49148864600000003,-0.323541258,-0.1630279544,-0.5556305,-43.841553000000005,47.738647,-114.912415,8.902854956877267,0.6806008652386422,131.93150991319186,20.236680555555488,29.168236111111327
37200,37200.0,0.07821350400000003,-8.05286892,-1.69218144,0.074874879,-0.527130126,-0.386468508,-45.585632000000004,46.606445,-113.55896000000001,8.233765111929426,0.6602325779665819,130.94215500234844,20.190583333333265,29.15591666666689
37300,37300.0,2.4590057,-8.558767800000002,-2.7944702,0.0262908936,-0.21160583,-0.048568726000000007,-45.770264000000005,45.939636,-112.420654,9.333251620145193,0.21926529956219068,129.78355314996546,20.144486111111046,29.143597222222446
37400,37400.0,2.57895508,-8.6858948,-2.56965944,0.33735351399999997,-0.15599365399999998,0.1425354,-45.47882,46.032715,-112.59155,9.419136080636232,0.3985389413604719,129.86220023650506,20.09838888888882,29.131277777778006
37500,37500.0,3.21844482,-8.7957916,-3.18998722,0.333090212,-0.10763244699999999,-0.0385528564,-45.100766571428565,46.04790028571429,-113.26439523809523,9.896146134372072,0.3523826792525298,130.3200361566767,20.0522916666666,29.11895833333356
37600,37600.0,0.8788368535,-11.37990805,-2.42019805,0.5687828070000001,-0.04594955249999999,0.466276553,-44.49592545,46.89788765,-115.6782527,11.681134781639301,0.7693968991450484,132.51707646595005,20.006194444444372,29.106638888889112
37700,37700.0,0.09305877000000007,-8.835058700000003,0.8793121299999999,0.13164215399999998,0.778669741,-0.09128723050000001,-44.52980030000001,47.08564635,-116.32759140000002,9.009507158786443,0.7963855019320446,133.16182201505438,19.960097222222156,29.09431944444467
37800,37800.0,2.01405338,-9.8479205,-0.013363639000000038,0.4766891600000001,0.5228942889999999,0.386164855,-43.85513285,47.5726305,-118.11325079999999,10.062911589808012,0.8187187227175134,134.674311256577,19.91399999999993,29.082000000000228
37900,37900.0,2.499355325,-10.18101525,1.3998108,0.24403381,-0.322017671,0.17610168250000002,-43.49769480000001,48.04710355,-119.88219950000001,10.587503509982023,0.4570821899936365,136.28029118783476,19.867902777777708,29.069680555555788
38000,38000.0,0.90960695,-9.68003075,0.4942016675,0.46533965,-0.025077819499999987,-0.2244377125,-44.190521000000004,48.048478499999995,-121.48712179999998,9.737699617303024,0.5259892073105856,137.91514033166123,19.82180555555549,29.05736111111134
38100,38100.0,1.3471488999999999,-9.638733,0.6390533374999999,0.2323112475,0.2271232625,0.04134368875,-44.66522225,47.7782437,-122.86239275,9.753881487747362,0.32759346827324304,139.18660357651694,19.775708333333267,29.045041666666894
38200,38200.0,1.77521976,-9.848522599999999,-0.12229613999999996,0.25191345,0.274154664,0.237130736,-43.8994597,48.23867925,-124.32334895,10.00945866351148,0.4420864680977732,140.3938393167018,19.72961111111104,29.032722222222446
38300,38300.0,2.75062864,-9.3967344,0.8351379400000001,0.04205627399999999,0.20384827,0.22648010600000001,-43.0219265,48.5101315,-124.8823543,9.829976491996883,0.3088484313355899,140.7115829933768,19.683513888888818,29.02040277777801
38400,38400.0,1.74554134,-9.8758148,0.54711915,-0.016961669999999998,0.370248414,-0.0038238525999999993,-42.94464050000001,48.613814899999994,-125.9317775,10.04413951817836,0.371191280667556,141.655802141264,19.6374166666666,29.00808333333357
38500,38500.0,2.62564086,-9.6823668,1.47439574,-0.260903934,0.239431762,0.11164856199999999,-43.009796,48.348542,-125.699918,10.142583129583798,0.3739948402860168,141.3785850235422,19.59131944444437,28.995763888889122
38600,38600.0,2.656135947368421,-10.835816789473684,-1.0335516957894737,-0.42057800526315786,-0.4810405421052632,-0.06356008410526316,-43.059082000000004,48.53027470000001,-123.7892165,11.220291209118324,0.6438023187507299,139.76083444651385,19.54522222222215,28.98344444444468
38700,38700.0,0.32973327950000003,-9.72989155,-1.625377635,-1.554769175,0.0014984128499999914,-0.5235183459999999,-45.089418,47.09747470000001,-118.368985,9.871121050160152,1.6409978952971187,135.13909538996927,19.499124999999932,28.971125000000235
38800,38800.0,0.6425239555,-11.28175025,-0.6135375955,-1.061764545,0.07181549094999999,-0.686922475,-48.1324771,44.830321000000005,-113.36074540000001,11.317593758387954,1.267179098889878,131.0618280018208,19.453027777777702,28.958805555555788
38900,38900.0,1.615467045,-8.343943549999999,-0.821526325,-0.1215637215,-0.0953285216,-0.6211463939999999,-50.743865500000005,42.3577883,-111.79077340000002,8.53918016103025,0.6460391836544969,129.87041102569356,19.406930555555483,28.94648611111135
39000,39000.0,-0.15341872980000001,-7.88449314,-2.34148028,0.27716445700000003,-0.662743376,-0.14635238609999998,-51.9757094,41.5193175,-111.08093290000001,8.228788017184273,0.7364224072606403,129.47708619483507,19.36083333333326,28.934166666666908
39100,39100.0,3.146332565,-8.403261950000001,-2.7227683999999996,0.05121841394999999,-0.06342773599999997,0.03463439905,-51.4141843,41.5686034,-110.269167,9.377037981593178,0.09785936605808693,128.5716784497312,19.31473611111104,28.92184722222246
39200,39200.0,3.5050177684210526,-8.796969210526315,-2.863225078947368,0.3980463957894737,-0.4234611115789474,0.16238804947368418,-51.2989807,41.730804,-110.45196299999999,9.894204236968024,0.6046833126826058,128.73494704350006,19.268638888888816,28.909527777778017
39300,39300.0,2.21923218,-8.7165438,-3.2286590200000003,0.43758851,-0.24291992,0.0022476197,-51.387023600000006,42.69058270000001,-111.2207,9.55928700644414,0.5018744193801187,129.74275426249227,19.222541666666594,28.89720833333357
39400,39400.0,2.377241602,-12.79997255,-4.32305296,0.352375792,-0.5134948570000001,0.5894195520000001,-50.098267,43.6959836,-113.45123,13.737685853775993,0.8648819500311623,131.49285396928042,19.17644444444437,28.884888888889126
39500,39500.0,-1.087641938,-7.2626677,3.2923065,0.371009838,1.02155155,-0.139218139,-50.7823196,43.6337283,-115.343325,8.07038476099116,1.0982897625839136,133.3672810823438,19.13034722222215,28.87256944444469
39600,39600.0,2.94036857,-9.95877535,0.13472137000000006,0.38454286,0.317294324,0.290084842,-50.336455,44.325257,-118.402402,10.385731876129034,0.5776828260301371,136.07967681601585,19.084249999999926,28.86025000000024
39700,39700.0,2.13627016,-9.8667118,1.0392425950000002,0.63242798,0.07228698400000003,0.131883243,-49.332733399999995,44.7634891,-120.1654064,10.148692227564933,0.6573546700995959,137.3943921260831,19.038152777777704,28.847930555555802
39800,39800.0,1.0038925915789474,-9.560781736842106,-0.12892070684210533,0.33351135,0.15161213363157894,0.12326049789473685,-49.5594794,44.613189899999995,-122.3088071,9.614582638555792,0.3876783802393881,139.3052055080853,18.992055555555478,28.835611111111355
39900,39900.0,2.124776415,-9.53979515,1.045474245,0.3031562845,0.200646973,0.1960220365,-49.31320170000001,45.0416565,-123.1707784,9.82937594942771,0.4135653641289344,140.11282008010446,18.945958333333262,28.823291666666908
40000,40000.0,1.278791855,-9.430008325,0.498761745,0.330381015,0.2391563375,0.4215331985,-48.23094389473685,45.38726784210525,-125.28622252631578,9.529439672210444,0.5866970068474917,141.71416888798274,18.89986111111104,28.810972222222468
40100,40100.0,2.22844547,-9.84660305,0.978787185,0.17905349350000002,0.27059021250000004,0.321027371,-46.90086225,45.93070985,-127.24227749999999,10.143611958873617,0.4574642008222503,143.17795203344622,18.85376388888881,28.798652777778024
40200,40200.0,2.7450569,-9.57426875,1.239638535,0.011591338899999998,0.49886933,0.252951049,-45.75431835,46.13433835,-128.8524645,10.03755727305685,0.5595213563397752,144.3079970295941,18.807666666666588,28.786333333333577
40300,40300.0,1.896848265,-12.15300475,1.25090028,-0.268468472,-0.332305148,-0.11104507539999998,-46.08703635,46.0192861,-128.155059,12.364515039534162,0.4419030200953553,143.75516093447618,18.76156944444437,28.774013888889137
40400,40400.0,1.806107335,-9.21537125,-0.64232104,-1.44574434,-0.326113888,-0.7250121875000001,-47.82180765,44.7691352,-124.6528646,9.413965952734335,1.6499619897402256,140.81805626214143,18.71547222222215,28.76169444444469
40500,40500.0,-1.2697143999999998,-11.927887,-1.0344849,-1.4859619,-0.32707214,-0.59568787,-50.641250799999995,42.4184418,-118.2939925,12.039801574389188,1.6339837794424172,135.48953349636034,18.669374999999928,28.74937500000025
40600,40600.0,1.4955902,-8.810638,0.43315125,-0.46969604,-0.014953613000000001,-0.6201935000000001,-52.25517305,40.0096134,-115.36796615,8.94716446807348,0.7781246416710406,132.82010098932975,18.623277777777698,28.737055555555813
40700,40700.0,0.7737274000000001,-7.8469695999999995,-2.12146,0.15455627,-0.5294800000000001,-0.39541626,-53.56971779999999,38.90884375,-115.03181699999999,8.165425801783696,0.6786683502777335,132.72504148329386,18.57718055555548,28.72473611111136
40800,40800.0,2.0690002,-8.04689,-3.180893,0.033111572,-0.14918518,-0.1003418,-53.978728,38.1586456,-113.93402115,8.896700555663823,0.18281430731532908,131.72238483994715,18.531083333333253,28.712416666666922
40900,40900.0,3.4995269999999996,-8.607132,-2.3596802,0.24829102,-0.040527344,0.16596985,-54.02542095,38.474959000000005,-115.0084695,9.586318434906334,0.3013915847089252,132.76303233927894,18.484986111111034,28.700097222222475
41000,41000.0,3.3235626000000003,-8.632263,-3.5783233999999995,0.29730225,-0.25038147,-0.151474,-53.5704042,38.7074278,-115.4656235,9.917985239567324,0.4171616965283646,133.04274252011558,18.43888888888881,28.68777777777803
41100,41100.0,1.0469711175,-12.89544035,-3.4185126950000004,0.7972724875,-0.5437995864999999,0.9063400265,-52.67211955000001,39.94064325,-119.301227,13.39982836065709,1.327841149239118,136.39113390134224,18.39279166666659,28.675458333333587
41200,41200.0,-1.695943465,-5.560562835,5.5829605,0.138890079,0.9245597805,-0.06368789695,-51.8393704,40.45242315,-120.66192635,8.082490947225264,0.95047598358678,137.4155275459409,18.346694444444367,28.663138888889147
41300,41300.0,1.7643951325,-9.49399825,0.2655616815,0.4185279865,0.485931393,0.149464415,-50.8512106,41.1412808,-124.6696479,9.663632232592253,0.6599415659975575,140.7869935411563,18.300597222222144,28.6508194444447
41400,41400.0,2.056781735,-10.02227595,0.392579642,0.5065147419999999,-0.02549667325,0.15351638835,-50.482331,41.402359499999996,-126.441724,10.239221089796214,0.5308601426270135,142.30301167937822,18.254499999999922,28.638500000000253
41500,41500.0,0.9459976175,-9.22100635,0.1024505605,0.3799682635,0.294124604,0.01929016135,-50.2573395,41.21971129999999,-128.3579225,9.272261820090801,0.4819308421060364,143.87710524454118,18.2084027777777,28.626180555555813
41600,41600.0,1.777973215,-9.59306395,0.4400947625,0.2495697065,0.19575043,0.2203544655,-49.630204000000006,41.6429139,-130.7305935,9.766411158363823,0.38622911302034907,145.9033787180043,18.16230555555548,28.61386111111137
41700,41700.0,1.87710422,-9.48016995,0.320986934,0.223042295,0.24358215100000002,0.399806215,-48.350764736842095,41.72901368421053,-132.09863,9.6709163313194,0.5193698156816073,146.7282681733168,18.116208333333255,28.60154166666693
41800,41800.0,1.90690159,-9.5030347,2.13567655,0.15359344600000002,0.160064695,0.203160096,-47.195128,42.154540399999995,-132.99316399999998,9.930212587662556,0.3024160666282231,147.28067037492417,18.070111111111032,28.58922222222248
41900,41900.0,2.73493807,-9.3641815,1.96615903,-0.232456971,0.7770660429999999,0.207627865,-45.8007804,42.1942136,-135.14129599999998,9.953297093060673,0.8373284342516165,148.79940329966038,18.02401388888881,28.576902777778038
42000,42000.0,1.20720214,-11.9608094,0.720092747,-0.300843815,-0.226298517,-0.14326324199999999,-45.47119,42.4758912,-135.252692,12.052090990763045,0.4029011768510622,148.87970257115245,17.977916666666587,28.56458333333359
42100,42100.0,1.321403539,-9.291145599999998,-1.47837986,-1.59280247,-0.0877120965,-0.70584108,-46.8798826,42.810975,-131.965328,9.51033863664266,1.7444396792514596,146.4430145086331,17.931819444444365,28.55226388888915
42200,42200.0,0.6608459560000001,-11.4107376,-0.269776912,-1.35322719,-0.219383235,-0.562232955,-49.1088874,42.080992,-126.45843799999999,11.436723358754218,1.4818944406448604,142.0363710787033,17.88572222222214,28.53994444444471
42300,42300.0,1.0945541200000002,-8.825478,0.0200408936,-0.08864288699999999,0.06184845040000001,-0.62529605,-50.7302856,41.114807,-124.186704,8.893221801195217,0.6429170146887604,140.30827576899395,17.83962499999992,28.527625000000267
42400,42400.0,0.2912340694736842,-8.351133947368421,-2.2402801263157888,0.2824988,-0.5641792684210526,-0.1609416757894737,-52.3092654,40.1025388,-124.62677,8.652875435001402,0.6514977246115596,140.98339635248922,17.793527777777694,28.51530555555582
42500,42500.0,2.81192169,-8.98810545,-2.50022205,0.00323867796,-0.013617705500000004,-0.2111297595,-52.3031618,39.5892348,-124.200134,9.74406074286618,0.22202160920646227,140.45858331686412,17.74743055555548,28.502986111111372
42600,42600.0,3.16649394,-8.68829575,-1.983790605,0.2390251155,-0.2614608725,0.1207527165,-52.2296148,39.6487422,-124.746096,9.458411144796212,0.3748431979266911,140.93105185084482,17.701333333333253,28.49066666666693
42700,42700.0,3.5119805,-9.738809725,-3.79141085,0.4616073525,-0.41229934799999995,-0.033923339500000003,-52.1936036,39.519042799999994,-125.6051638,11.027448787456374,0.6200609418982689,141.6424919750226,17.65523611111103,28.47834722222249
42800,42800.0,0.701306923,-11.5253625,-3.033110835,0.433598327,-0.22613907149999998,0.5766349740000001,-51.2878418,39.9188236,-127.2045892,11.995627036794028,0.7561359586294287,142.84605816678723,17.60913888888881,28.46602777777805
42900,42900.0,-0.055197142000000005,-6.6635696699999984,0.7229728599999999,0.462516016,0.647537985,0.068878174,-50.07476679999999,40.716553000000005,-129.428104,6.719844700623717,0.8068064063784582,144.62747724125333,17.563041666666585,28.4537083333336
43000,43000.0,1.849626115,-9.7273118,1.040385439,0.131966399,0.6857185365,0.377218625,-48.297424,40.852660799999995,-132.51526,10.001811260230273,0.7948925539302379,146.8397745541156,17.516944444444366,28.44138888888916
43100,43100.0,1.072528104,-9.6691925,-0.213998414,0.75834044,-0.15024413875999998,0.237142942,-46.9381706,40.9829714,-133.93096799999998,9.742667137245922,0.8119413126780876,147.71704641475554,17.47084722222214,28.429069444444714
43200,43200.0,2.9201324,-9.2233978,0.519104012,0.204620362,0.354052734,0.0206787106,-46.148681599999996,40.7418812,-136.022948,9.693566465741796,0.4117214805222679,149.30504423434627,17.424749999999918,28.41675000000027
43300,43300.0,0.862796028,-9.72713,0.542092896,0.157107546,0.054925538,0.15234375,-45.548402,40.591127,-137.1225,9.78125992558769,0.22747464197476874,150.08303498661238,17.378652777777695,28.40443055555583
43400,43400.0,1.93971254,-9.168091,0.50545348,0.048455810999999994,0.293548584,0.20240784,-44.438780799999996,40.529784,-137.760008,9.390297637657165,0.3610170775782551,150.3174615553223,17.332555555555473,28.392111111111387
43500,43500.0,2.02231138,-9.899520599999999,0.297409056,0.130471799,0.204067992,0.165127562,-43.17627,40.5468752,-138.978574,10.112646060736331,0.2961287958985085,151.07396955463986,17.28645833333325,28.379791666666943
43600,43600.0,1.9248657,-9.9682314,0.5368225000000001,-0.14414368,0.429895016,0.17151489600000003,-41.7945865,40.8721925,-139.45770249999998,10.168754019887123,0.486099033721492,151.21447773661905,17.240361111111028,28.367472222222496
43700,43700.0,2.9101128736842106,-11.06924347368421,0.9419161747368422,-0.4254551968421053,-0.09546942473684213,0.1196626390526316,-40.5036925,41.71524,-139.1170525,11.48504504218333,0.4621604860407871,150.77894212501562,17.194263888888806,28.35515277777805
43800,43800.0,0.296993255,-9.78358425,-1.4899826,-1.344547225,-0.6336097725000001,-0.7080726575,-41.7037965,42.0608525,-135.22224500000002,9.905530962194726,1.6468540266704506,147.62671091851308,17.148166666666587,28.342833333333612
43900,43900.0,-0.30844497175,-10.67003625,-0.3946456875,-1.1834183,0.087841035,-0.805809,-43.79768375,42.23938,-129.979705,10.68414756747702,1.434938346547685,143.5170572622481,17.102069444444357,28.330513888889165
44000,44000.0,1.0843734625,-9.49208475,-0.8914337,-0.4121742175,-0.1134910575,-0.79462435,-46.142196500000004,41.339875,-126.6983025,9.596042643071737,0.9050553426911616,141.03395826066372,17.055972222222138,28.318194444444718
44100,44100.0,0.6558113074999999,-7.719173599999999,-1.197292325,0.344429015,-0.4743576125,-0.36425781,-47.77450525,40.4750825,-127.14844,7.845901184485067,0.6930403664747635,141.7299359772552,17.009874999999916,28.30587500000028
44200,44200.0,2.5663910000000003,-8.737316499999999,-3.0189819,0.242168425,-0.2370643625,0.2605209375,-47.627258000000005,40.426636,-127.07214499999999,9.606949710989571,0.4300536937680757,141.59804065979134,16.963777777777693,28.293555555555834
44300,44300.0,3.42292025,-9.19520175,-2.889396575,0.3777236925,-0.16542435,0.1606483475,-46.92687975,40.805055,-127.9788975,10.232746947035556,0.4509921327682391,142.28788952711506,16.91768055555547,28.281236111111394
44400,44400.0,2.8411285800000003,-8.0410175,-2.94889982,0.1509307848,-0.40505981799999996,-0.25778198,-47.17102175,40.641402500000005,-128.00712125,9.037836679839934,0.5188298744698218,142.3470227207664,16.87158333333325,28.268916666666946
44500,44500.0,1.25053863,-12.416662400000002,-2.56318515,0.54123992,-0.5489761360000001,0.8266571090000001,-45.79086425,40.9248355,-129.72984,12.842786378313074,1.1462806560714438,143.5323005930261,16.825486111111026,28.256597222222506
44600,44600.0,-1.17466584,-7.53010103,2.51719212,0.2031295788,0.7519332879999999,-0.0444107045,-44.65065075,41.2765505,-130.53055,8.029956627792027,0.8109221562523381,143.99926344099384,16.779388888888803,28.24427777777806
44700,44700.0,1.644985946,-10.1311506,1.09252168,0.44930725,0.549737551,0.20176391719999998,-43.396759,41.32843025,-133.200835,10.351012764387256,0.7435755064083956,146.0609087636726,16.73329166666658,28.231958333333612
44800,44800.0,2.77456357,-10.1652742,1.93671264,0.539324958,-0.322390752,0.40076447600000004,-42.28248625000001,41.281128,-134.827805,10.740693527112867,0.7579354034344277,147.2090501614501,16.68719444444436,28.21963888888917
44900,44900.0,0.866627495,-9.512614500000002,0.35665436100000003,0.40605774200000005,0.15272216919999998,-0.182899473,-42.5605775,40.77110275,-137.04071000000002,9.5596255645146,0.476915361682336,149.17722758792038,16.641097222222136,28.20731944444473
45000,45000.0,1.44350509,-9.4334214,1.29824597,0.16307297099999998,0.298021699,0.1128684991,-42.09709150000001,40.15617425,-137.75787250000002,9.635335242768011,0.3619076124923704,149.5390300712446,16.594999999999914,28.195000000000285
45100,45100.0,1.193372315,-9.688408500000001,0.17787704510000002,0.1746345505,0.176626587,0.220571898,-41.2715915,40.060425,-138.6585225,9.76387286143791,0.3325768669555505,150.1146560335375,16.548902777777688,28.18268055555584
45200,45200.0,2.2288078999999996,-9.4379214,0.935874945,0.0722579956,0.16826476899999998,0.285823824,-40.00816375,40.411377,-139.30167749999998,9.742977184649872,0.3395184733832568,150.4618897833187,16.50280555555547,28.170361111111397
45300,45300.0,1.94461516,-9.305758599999999,1.19343265,0.06826476940000001,0.221426394,0.132958981,-39.0342725,40.288926,-139.8475625,9.583054545752423,0.26766796554781325,150.67917708493567,16.456708333333243,28.15804166666695
45400,45400.0,2.31709295,-9.9906805,1.731716175,-0.0193481445,0.19329834,0.20911789,-37.791443,40.397186,-140.174711,10.401864857954747,0.2909600000635965,150.69531951341332,16.410611111111027,28.14572222222251
45500,45500.0,0.5190505925,-12.5039865,-1.42504885,-0.31789398,-0.52309417,-0.19301224,-38.18672615789474,40.57175468421053,-139.94245,12.609104563831227,0.6507548221757584,150.6264447031285,16.3645138888888,28.133402777778066
45600,45600.0,0.201040652,-9.1599488,-0.94207457,-1.68729246,-0.282119746,-0.567562868,-39.6730042,41.748964,-134.88464399999998,9.219789769872074,1.802617682130777,146.66681146002063,16.31841666666658,28.121083333333626
45700,45700.0,-0.013238524000000002,-11.3104156,-0.359567266,-1.38113704,-0.07695312276,-0.53923035,-41.8551625,42.0657344,-128.526465,11.318748604426196,1.4850522740644307,141.56455523782742,16.272319444444356,28.10876388888918
45800,45800.0,1.429929252631579,-8.010593810526315,0.02091498421052632,-0.1750062653473684,-0.1935874510526316,-0.5329525568421052,-43.09082,42.00592,-126.127625,8.139878582671653,0.6113147359694691,139.74796553603,16.226222222222134,28.09644444444473
45900,45900.0,0.7862757631578947,-9.025985210526317,-2.3061917157894736,0.2507621394736842,-0.5729297736842105,-0.39821824842105263,-45.017853,40.984802,-126.094664,9.351094948213307,0.7417719052373888,140.02252174711091,16.180124999999908,28.08412500000029
46000,46000.0,2.13064575,-8.465874000000001,-3.0767440500000003,0.07092285,0.083580017,-0.29421997,-46.4555361,39.941406,-125.88363700000001,9.256488787098801,0.3320821981339593,140.00050708077396,16.13402777777769,28.071805555555855
46100,46100.0,3.1579124526315785,-8.326496210526317,-2.2044420736842105,0.2719533852631579,-0.3142925010526316,0.1732627452631579,-46.2623602,40.045013299999994,-126.163331,9.179901741998677,0.4527534813056421,140.21778083854636,16.087930555555467,28.059486111111408
46200,46200.0,2.655936395,-8.98936205,-3.0794944500000003,0.4525093095,-0.0346122741,0.0077873231700000016,-46.3049314,39.745788700000006,-126.984408,9.870665206373467,0.4545443343137533,140.88651498916687,16.041833333333244,28.04716666666696
46300,46300.0,2.312132275,-12.1058916,-3.29066929,0.33980102500000003,-0.059378051000000036,0.49205781200000004,-45.45331685714286,40.01682828571429,-129.13317142857144,12.784862708940107,0.6217013051401132,142.62794508324166,15.995736111111023,28.03484722222252
46400,46400.0,-0.4500083925,-8.25487925,1.717346175,0.2887687675,0.49237824,0.09008026125,-44.611740000000005,39.82849125,-129.6607925,8.455797199700456,0.5911754130267015,142.78809770468638,15.949638888888801,28.022527777778073
46500,46500.0,1.44817202,-9.9622494,-0.24368591399999998,0.406170656,0.63336182,0.142965696,-43.76983625,39.9513245,-131.801605,10.072567146009836,0.7680983303544193,144.5115693841512,15.903541666666575,28.01020833333363
46600,46600.0,3.6227722263157895,-10.625380631578947,0.7583939363157894,0.5167364784210526,-0.2646741389473684,0.18476466,-43.117523,39.739991499999995,-133.21228,11.254105138178003,0.6224348446203898,145.54693929718232,15.857444444444356,27.997888888889182
46700,46700.0,0.8320831289999999,-9.15696085,0.7228553645,0.2535202055,0.12411422685000001,-0.06566314690000001,-43.2858285,38.918608899999995,-134.504088,9.223387251554906,0.2939617975535414,146.55945078640252,15.811347222222132,27.985569444444746
46800,46800.0,1.68430178,-9.27187955,0.94593737,0.258630375,0.236985015,0.10813369560000001,-42.9597469,38.6660768,-135.76798,9.471047668331183,0.3688092569339563,147.55863386566762,15.76524999999991,27.973250000000302
46900,46900.0,1.86129917,-9.3850019,0.292980962,0.225176999,0.15729217799999998,0.353363038,-42.0269778,38.673097,-136.54693400000002,9.572626807308199,0.4477549077997584,148.01000431299528,15.719152777777689,27.960930555555855
47000,47000.0,2.13675079,-9.5125018,1.23892826,0.144432071,0.18211364300000002,0.322683703,-40.7060245,38.793639899999995,-137.562104,9.828432340993649,0.3982051370412062,148.611142229294,15.673055555555464,27.94861111111141
47100,47100.0,2.60649869,-9.54637605,1.128909334,0.01596221925,0.48336792,0.222865294,-39.3449412,38.7516784,-138.718568,9.961274101854665,0.5328904417544704,149.30698258804398,15.626958333333242,27.93629166666697
47200,47200.0,2.02386781,-11.87246395,0.40239563,-0.08289184429999999,-0.103804013,-0.0405715939,-38.4280396,38.80447410000001,-138.87466600000002,12.05334171422852,0.1506076980049388,149.2270897991229,15.580861111111018,27.923972222222524
47300,47300.0,0.8714111400000001,-10.3174214,-1.53858639,-1.2611907800000002,-0.116053769,-0.570222473,-40.0405886,39.344787200000006,-136.78054699999998,10.468013681768609,1.3893946510110895,147.85219828804804,15.534763888888795,27.911652777778077
47400,47400.0,-0.487899784,-10.5419388,-0.16809463149999998,-1.4938384999999998,0.081296538,-0.352001186,-41.603393,39.9359141,-131.261751,10.556590042411326,1.5370279103399742,143.37163377772018,15.488666666666575,27.89933333333364
47500,47500.0,1.646715555,-9.003195550000003,-0.2138748175,-0.5352623025000001,0.12623825065,-0.44143524,-42.40417466666667,40.36458366666667,-127.28068166666668,9.155161913816153,0.7074064040797233,140.0993834218072,15.44256944444435,27.887013888889193
47600,47600.0,1.516536725,-8.48730015,-2.45772477,0.1778816185,-0.591691587,-0.591057582,-44.0995786,38.8696286,-126.5683,8.965780773939752,0.8550889477778975,139.55373429636765,15.39647222222213,27.874694444444753
47700,47700.0,2.084969375,-8.82865325,-2.284197985,0.1337303095,-0.1351234405,-0.2449493375,-45.7041925,38.3364861,-126.01318549999999,9.356072037982603,0.31081948757546085,139.41988150830838,15.350374999999907,27.862375000000306
47800,47800.0,3.76241993,-8.71749785,-1.196941345,0.26406479000000005,-0.4333946265,-0.150251766,-46.190490399999995,37.8565982,-126.163177,9.569981944083224,0.529301566989387,139.58450631742966,15.304277777777687,27.850055555555862
47900,47900.0,1.533657055,-8.09267575,-2.479750865,0.436740125,-0.229609676,0.13838119140000002,-46.67904515789475,37.697240105263155,-126.38333157894735,8.602384812642018,0.5130089195690628,139.90278067939974,15.258180555555462,27.837736111111422
48000,48000.0,2.38108515,-9.7333599,-1.927109565,0.6478782630000001,-0.0994850175,0.367099013,-45.8715816,38.1148545,-128.0850995,10.204574054149788,0.7514654903834379,141.28970304924255,15.21208333333324,27.82541666666697
48100,48100.0,4.460567475,-11.63633765,-3.347883595,-0.093762968,-0.08004837199999999,0.050985718600000014,-44.5258331,38.747178000000005,-129.5111105,12.914303254131047,0.14475276688925828,142.32728647790762,15.165986111111016,27.813097222222535
48200,48200.0,1.6464233,-9.664169000000001,-0.32101440000000003,0.5444336,0.14590454,0.46957397,-44.46022045,38.7759404,-130.74973849999998,9.808665678284239,0.7336182882829002,143.4428532866575,15.119888888888795,27.80077777777809
48300,48300.0,0.33798218,-9.087158,1.6087036,0.4112854,0.17146301,0.21817017,-43.27613845,39.06082155,-132.5464675,9.234641289385014,0.4961385563824374,144.80050764566386,15.073791666666573,27.788458333333644
48400,48400.0,0.8527374,-9.041672,1.8636932000000002,0.46241759999999993,0.15335083,0.0019226074,-42.788162,38.97346470000001,-133.683854,9.27104880650884,0.4871860119817311,145.67489185557008,15.027694444444348,27.7761388888892
48500,48500.0,1.4165802,-9.186523,1.2962646,0.20036316,0.347229,0.08395386,-42.437744,38.659591299999995,-134.9549855,9.385052275068807,0.4095871396114448,146.65739541538932,14.981597222222128,27.76381944444476
48600,48600.0,1.6081085,-9.999359,0.42956543,0.24510193,0.1352539,0.13615417,-41.8167875,38.5034177,-135.75950899999998,10.13694824971028,0.31129813935088624,147.17957116185684,14.935499999999905,27.751500000000316
48700,48700.0,1.7661285,-9.343338000000001,1.017334,0.16200256,0.1469574,0.22776794,-40.8127596,38.69590725000001,-136.8705755,9.563061399380024,0.31578401060401584,147.9753562258386,14.889402777777686,27.739180555555873
48800,48800.0,1.6871185000000002,-10.099915,1.2639465,0.07785034,0.21833801,0.24053955,-40.1406865,38.97972160000001,-137.69493500000002,10.317568153161359,0.33405304543302433,148.62913163819718,14.84330555555546,27.726861111111425
48900,48900.0,1.922286215,-9.5710888,1.242040225,0.00787200927,0.484233105,0.19505234149999998,-38.74435475,39.4702899,-137.9629495,9.841144553031544,0.5221041142729637,148.63682984623424,14.797208333333238,27.714541666666978
49000,49000.0,2.74134521,-10.895862775,1.92917099,-0.047638701900000004,0.014229583950000001,0.28868942000000003,-37.6761624,39.87869265000001,-138.68263299999998,11.400780714211555,0.29971243475558035,149.1398700089834,14.751111111111017,27.702222222222534
49100,49100.0,0.905896015,-10.88652125,-1.424931305,-0.747729505,-0.561966689,-0.3761421315,-37.907714,40.335388,-136.74010800000002,11.016820837223976,1.0097979645727109,147.51929495329134,14.705013888888793,27.68990277777809
49200,49200.0,-2.34430309,-9.72210735,-0.011628723500000005,-1.738689395,-0.109441378,-0.763095097,-40.8541864,41.3552856,-131.889952,10.001912130565943,1.9022215151795188,144.133823931669,14.65891666666657,27.67758333333365
49300,49300.0,1.133039825,-10.1650935,-0.2440452442,-1.192524775,0.1975624085,-0.50189362,-42.8906252,41.2277222,-126.084594,10.232412846705863,1.3091270919714568,139.41576346151896,14.612819444444348,27.665263888889214
49400,49400.0,3.0597824300000003,-8.761260525,-1.0301834035,0.1598182645,-0.36371689,-0.7475944569999999,-45.220337,40.552673399999996,-124.53155559999999,9.337514600393089,0.8473137745365218,138.55530560074058,14.566722222222126,27.652944444444767
49500,49500.0,1.67598576,-8.573135449999999,-2.33957668,0.031832886000000005,-0.663909914,-0.535708615,-47.5524908,38.9920044,-124.0112304,9.043806080905377,0.8540870745103991,138.42128651369595,14.520624999999905,27.64062500000032
49600,49600.0,2.20079806,-7.92705383,-1.61077727,0.0119140624,-0.227482602,-0.0381256101,-48.795776,38.411254,-123.54583740000001,8.38365804863969,0.2332114680605845,138.27542500524314,14.474527777777679,27.628305555555876
49700,49700.0,3.99931791,-8.6487912,-3.24361575,0.471897888,-0.441598514,0.172262572,-48.4631348,38.520812799999995,-123.239134,10.065694207571141,0.6694965996881843,137.91484309337508,14.428430555555458,27.615986111111432
49800,49800.0,2.9165405100000004,-9.15779115,-3.2283035200000003,0.38634643399999996,-0.678826885,0.0624374385,-48.234559999999995,38.80768,-123.98682,10.141063834789671,0.7851272390199096,138.58333355453823,14.382333333333234,27.60366666666699
49900,49900.0,2.83526152,-13.0404781,-3.45945736,0.36398926,-0.349443054,0.522308357,-47.2683714,39.393615999999994,-125.20935,13.796194567739773,0.7327067293324006,139.51207556398785,14.336236111111011,27.59134722222255
50000,50000.0,-1.4534805400000002,-7.92059334,2.9169006200000003,0.30529175199999997,0.3650176971,0.167787169,-46.7858876,39.3386842,-126.21093799999998,8.581561471685996,0.524613331875182,140.23441903435508,14.290138888888789,27.5790277777781
50100,50100.0,1.63451232,-10.515251,-0.37680205549999995,0.46407090450000005,0.5448470870000001,0.239314271,-45.7067872,39.795227000000004,-128.23181100000002,10.658523646683298,0.7566541646841014,141.83173381295813,14.244041666666567,27.566708333333654
50200,50200.0,2.5907463450000003,-10.338730499999999,0.910374445,0.64564514,0.03532714795,0.1117500335,-44.561768,39.7747804,-129.509582,10.703335634203313,0.6623006073035204,142.62024847098084,14.197944444444346,27.554388888889214
50300,50300.0,0.823709872,-9.01904565,0.8568740850000001,0.16738815199999998,0.2545532205,-0.14247359850000002,-44.844055600000004,39.5007322,-131.37725600000002,9.097421688221406,0.3372633751565941,144.33056337617532,14.151847222222125,27.54206944444477
50400,50400.0,1.36156848,-9.4461124,0.7681640590000001,0.2690688975,0.3402618435,0.20337066550000002,-44.4961556,38.9172364,-132.617802,9.575678224350598,0.4794926986907354,145.19645183631303,14.1057499999999,27.52975000000033
50500,50500.0,2.11401146,-9.60838545,0.6806007409999999,0.15875625699999998,0.33082656899999996,0.30174179300000004,-43.297424,39.258118,-134.32067800000002,9.861918223068658,0.4751257241277112,146.48538315231286,14.059652777777679,27.517430555555887
50600,50600.0,1.801687595,-9.45988195,1.201091725,0.13329696300000002,0.1909606955,0.2032119775,-42.0333862,39.481200799999996,-135.129698,9.705053983960779,0.3101423910786386,146.92060305559696,14.013555555555456,27.50511111111144
50700,50700.0,0.9672273336842104,-9.075957578947367,0.7261352578947369,0.1444011497894737,0.6072178631578947,0.14180554578947369,-41.0992428,39.026184,-136.167908,9.159731322540779,0.6420163207914515,147.49214456811683,13.967458333333235,27.492791666667
50800,50800.0,2.88589486,-10.182992599999999,2.0648009999999997,-0.041668701,0.345736692,0.30489196399999996,-39.34711589473685,39.63382089473684,-137.19145105263158,10.783634024621522,0.4675088094635814,148.12350482834466,13.921361111111011,27.480472222222552
50900,50900.0,0.679400642,-11.901785199999999,-1.38548588,-0.231280512,-0.42785645200000005,-0.222848512,-38.9281465,39.5555877,-136.85097050000002,12.011503766108765,0.5498028664792416,147.67610955412403,13.875263888888789,27.468152777778112
51000,51000.0,0.22282104,-9.5154906,-0.938726792,-1.68111576,-0.177520752,-0.58482361,-40.32363865,40.5368805,-132.99590800000001,9.58674164493235,1.7889769900187982,144.76623604400206,13.829166666666564,27.455833333333665
51100,51100.0,1.02033994,-11.66644,-0.32245788400000003,-1.3153045799999998,0.08646240320000001,-0.5185607879999999,-42.05261315,40.8692936,-127.61711399999999,11.715683270576827,1.4170947488202268,140.44552338132522,13.783069444444346,27.443513888889218
51200,51200.0,1.23556826,-8.29612412,-0.32460937199999995,-0.1925140368,-0.17154541,-0.519625848,-43.44612115,40.63430775,-124.9140148,8.39407722193469,0.5933355303843417,138.3556726535132,13.736972222222118,27.431194444444774
51300,51300.0,0.1210693344,-8.9375242,-2.23374944,0.14582214400000001,-0.576138308,-0.329583736,-44.9232484,39.83139085,-124.5561212,9.217196709724805,0.6800135896475095,138.2710516314884,13.6908749999999,27.41887500000033
51400,51400.0,2.1374725000000003,-8.561154,-2.24572456,-0.191656496,-0.0260284424,-0.17575988399999998,-45.5545815,39.44213905,-123.4439835,9.105807927791801,0.2699460418749889,137.36568072158684,13.644777777777676,27.406555555555894
51500,51500.0,2.4059828999999997,-8.20041675,-2.06968685,0.3188705475,-0.256504055,0.1321563725,-45.6439969,39.462432899999996,-123.7287155,8.798311443733803,0.4305244366607303,137.65714156237078,13.598680555555456,27.39423611111145
51600,51600.0,2.644203225,-8.828296250000003,-3.022579225,0.416336055,-0.3028411875,-0.04760742075,-45.55122465,39.234697,-124.8184222,9.702900223117073,0.5189891197913635,138.54218092256994,13.552583333333233,27.381916666667003
51700,51700.0,1.51413345,-13.4146845,-2.930694625,0.5186004425,-0.1739501965,0.4160537725,-44.95224035,39.4712063,-126.50871275,13.860865594820593,0.7498681645490222,139.93981939948867,13.506486111111007,27.369597222222556
51800,51800.0,-1.63663105,-7.2134018,2.086647,0.34710312,0.796772005,0.09753417974999999,-44.6539305,39.2320252,-127.5255615,7.691702541104437,0.8982919260115386,140.6979442625332,13.460388888888788,27.35727777777812
51900,51900.0,2.670833575,-10.66284575,0.27663421250000003,0.571601875,0.363750455,0.352130885,-42.86979725,39.904557000000004,-129.827423,11.006073834322912,0.769092762314457,142.42682657820654,13.414291666666564,27.344958333333672
52000,52000.0,1.624866475,-10.20286575,1.36120985,0.5447082624999999,-0.0961837745,0.3081893925,-42.246551700000005,39.26902735,-131.6574105,10.430986438893493,0.6344373951407865,143.73781798378158,13.368194444444342,27.33263888888923
52100,52100.0,1.37994689,-9.391586300000002,0.7645111,0.271304322,0.545909102,-0.187690732,-41.801605200000004,38.958054,-133.6491385,9.528135413579434,0.6389183121960573,145.35205614264376,13.32209722222212,27.320319444444785
52200,52200.0,1.27064818,-9.31772295,1.08892519,0.255007936,0.36310883,0.120492555,-41.57821625,38.6261,-134.9955735,9.468184288816056,0.4602144621105092,146.43978637454393,13.275999999999895,27.308000000000337
52300,52300.0,2.09125979,-9.5778576,0.75002291,0.21058502,0.365765377,0.19985503899999998,-40.41412375,38.52149995,-136.5119175,9.833039219321199,0.4675883704799316,147.48813992949766,13.229902777777676,27.295680555555897
52400,52400.0,1.53149416,-9.4236758,1.09216002,0.10469818,0.233142085,0.221365359,-39.47700505,38.529129600000005,-137.30613649999998,9.609587606810132,0.33859672288628084,147.9726741793959,13.183805555555454,27.28336111111145
52500,52500.0,1.37934265,-9.792622099999999,0.5831451409999999,0.107354735,0.458877565,0.130827331,-38.2675935,38.6831663,-138.422696,9.908899388545919,0.4898515289917517,148.73346949070998,13.13770833333323,27.271041666667013
52600,52600.0,2.51491085,-9.8937714,2.0448074,-0.164392089,0.392825317,0.234152222,-36.7054741,38.54141235,-138.59367600000002,10.412108961280342,0.4894619409534523,148.4621073343931,13.091611111111007,27.25872222222257
52700,52700.0,0.9998031555,-11.27463455,-0.1034423745,-0.2092376695,-0.3392196675,-0.0748237609,-36.450959000000005,38.845825,-138.13781999999998,11.344524134838322,0.41775279099960105,148.0532882329631,13.045513888888786,27.246402777778126
52800,52800.0,0.98740769,-9.257155099999999,-0.8907203699999999,-1.398182695,-0.009897613850000002,-0.4212455715,-36.688232,39.831543,-135.84061,9.355208014358467,1.4613317249619828,146.23727720535956,12.999416666666562,27.23408333333368
52900,52900.0,0.05840530450000001,-11.4322281,-0.532961283,-1.224809265,-0.052446748250000015,-0.7034393259999999,-38.516998,40.4357915,-130.616,11.453622065611482,1.41362631610062,142.0535004440259,12.95331944444434,27.221763888889235
53000,53000.0,1.0361381440000001,-8.7980064,-0.42749785799999995,-0.5878318675,-0.127929687,-0.487296286,-40.354157,40.38467350000001,-127.4498,8.869764784135189,0.7803469410661417,139.65266595916054,12.907222222222115,27.20944444444479
53100,53100.0,0.12562179404999999,-8.5912648,-1.33071439,0.13803558400000002,-0.5282493555,-0.47078626799999995,-41.716765,40.342712,-126.84936499999999,8.697364714568959,0.7229547937638456,139.4941249808985,12.861124999999895,27.19712500000035
53200,53200.0,2.249576555,-8.847692299999997,-2.389373025,-0.054984282249999995,-0.20723572699999998,-0.1381584185,-42.7825935,39.82391300000001,-125.76904499999999,9.43893074264365,0.2577226372582864,138.68770428116312,12.815027777777672,27.184805555555908
53300,53300.0,2.1660835400000003,-8.37495105,-1.9930084,0.202968597,-0.23962173399999998,-0.044357298700000006,-42.831421,39.778137,-126.005553,8.880806900026633,0.321359870298088,138.90374135100558,12.768930555555448,27.17248611111146
53400,53400.0,2.7415283,-7.9896697,-2.4015807999999996,0.456658934,-0.051388549400000004,0.072659302,-42.640685999999995,39.8269655,-126.57013,8.784318776375535,0.4684890287600098,139.37150014183982,12.722833333333227,27.160166666667017
53500,53500.0,0.8623138440000001,-11.9487092,-1.67900692,0.65969848,0.19170532199999998,0.35943298,-41.921235,39.832306,-128.82538,12.099563143350856,0.7806375820009642,141.20923216906675,12.676736111111007,27.14784722222257
53600,53600.0,-0.658480816,-6.867263799999999,2.4315948400000003,0.17649536,0.92163088,0.06541747980000001,-41.3894655,39.8803715,-129.71878,7.387782577772093,0.9564036601595424,141.88213067573838,12.630638888888784,27.13552777777813
53700,53700.0,2.866977,-10.9350096,-0.51374817,0.301345828,0.6265502799999999,0.274423216,-39.79721050000001,40.261841499999996,-132.64694,11.323972803756831,0.7619141305647605,144.22243217467158,12.58454166666656,27.123208333333693
53800,53800.0,2.6469574000000002,-10.156174,1.8378296000000003,0.543582156,-0.5218048,0.356018072,-39.0243535,40.216827,-134.02405,10.677620079213069,0.8361700208759321,145.26785021701585,12.538444444444337,27.110888888889235
53900,53900.0,1.29016114,-9.505432199999998,0.119515993,0.33970032,0.0773010262,-0.125268552,-38.83667,39.79721,-135.8551,9.594864982795436,0.3794818904592077,146.7949193119691,12.492347222222117,27.0985694444448
54000,54000.0,1.5210762,-9.559484125,1.3100288,0.20893020399999998,0.2747398345,0.09769287105,-38.54599,39.468384,-136.73324499999998,9.769676134576132,0.3621433086451191,147.4433689500209,12.446249999999893,27.08625000000036
54100,54100.0,1.483972185,-9.716057,-0.098300932,0.275241099,0.258872224,0.2237655625,-37.528991999999995,39.3737795,-138.196565,9.833889619163749,0.4424220422621079,148.5160644972291,12.40015277777767,27.07393055555591
54200,54200.0,2.322180155,-9.46616505,1.35366287,0.084298704,0.0971130385,0.20672073100000002,-36.215973,39.511871500000005,-138.95721500000002,9.843687733495537,0.24505498590645025,148.9359728194103,12.354055555555446,27.061611111111468
54300,54300.0,1.12735446,-9.4686219,1.0036338575,0.11327591099999999,0.377911373,0.238788602,-34.999084499999995,39.6957395,-139.476775,9.591097643417166,0.4622454168352994,149.17942185259096,12.307958333333225,27.049291666667024
54400,54400.0,2.21492233,-10.1597672,1.995487985,0.0674598713,0.327799226,0.2693573085,-33.1001285,39.971160999999995,-140.17792,10.588158777783017,0.4330889601790063,149.47631231399663,12.261861111111006,27.036972222222577
54500,54500.0,1.833466345,-10.56911495,-0.04305267399999999,-0.07139740115,-0.152272795,0.1518608115,-32.085780210526316,40.68836436842105,-140.7838505263158,10.728924997702906,0.23766149259177105,150.01722197494414,12.215763888888779,27.024652777778133
54600,54600.0,2.23779295,-9.614494,-1.26194,-1.21271515,-0.187530515,-0.476905825,-32.285156300000004,41.729355,-138.34480200000002,9.95289846947161,1.3191825388771483,148.06469165722692,12.169666666666558,27.012333333333693
54700,54700.0,-0.88365175,-12.27983075,0.0656433105,-1.63189695,-0.17634582299999998,-0.8311081,-35.30158915,44.088362,-132.23121799999998,12.31514655736104,1.8419749459349744,143.789520822761,12.123569444444337,27.00001388888925
54800,54800.0,1.338768,-9.582763499999999,-0.31383514249999994,-0.808982835,-0.148643495,-0.6771774349999999,-38.20701665,44.8747252,-127.17735290000002,9.691198337563664,1.0733947225521352,140.17038723421516,12.077472222222113,26.98769444444481
54900,54900.0,0.0979690565,-7.20233165,-0.7579574600000001,-0.11869049,-0.76116945,-0.6276474000000001,-41.08123815,44.63317905,-125.418701,7.246035963994133,0.9941862607873844,139.31899071881057,12.03137499999989,26.97537500000036
55000,55000.0,2.0947342,-8.0714265,-2.21304325,0.22059631,0.165611265,0.071166992,-42.212143700000006,44.383851,-125.41122299999999,8.639246182017986,0.2894284722721298,139.57008829915992,11.985277777777666,26.963055555555922
55100,55100.0,2.70046235,-8.602936,-2.67810825,0.420867925,-0.3771515,0.293807985,-41.5358735,44.880371200000006,-126.13670525,9.40839584056265,0.6378471278279578,140.17826728302464,11.939180555555446,26.95073611111148
55200,55200.0,3.76391146,-8.139842250000001,-3.798359675,0.118548587,-0.4607192984999999,-0.44186172700000004,-41.52412405,45.155563,-126.2866215,9.752306770529156,0.6697532004382818,140.39841563810842,11.893083333333225,26.93841666666703
55300,55300.0,-0.629867535,-11.999115,-2.250740035,0.78785706,-0.208831787,0.7880859250000001,-41.09634385,45.1615155,-128.24554550000002,12.366077599154913,1.1568981461608168,142.0402893632075,11.846986111110999,26.92609722222259
55400,55400.0,-0.61490633,-7.1281129,1.91635895,0.126327515,1.53979495,-0.09927368,-40.0193025,45.64445515,-129.771954,7.5968369074000535,1.5486825915926141,143.26810768468408,11.800888888888776,26.913777777778144
55500,55500.0,3.9622040000000003,-10.5320665,0.010574349999999956,0.43950653,-0.04798126250000001,0.31244659999999996,-38.64479075,46.0517892,-131.544874,11.256499912939857,0.5774434522380341,144.6315885106313,11.754791666666556,26.901458333333697
55600,55600.0,1.66677095,-10.259727499999999,0.52653505,0.5135498199999999,-0.553977965,0.136680605,-38.7708283,46.07292135,-133.049236,10.414092548096988,0.7710781171084515,146.04111877749372,11.708694444444331,26.889138888889256
55700,55700.0,0.41160582,-9.4462965,0.0267333985,0.31594086,0.3893127400000001,-0.208992,-39.212648,45.397873600000004,-135.05363400000002,9.456042577454207,0.5448376153548152,147.77715232553348,11.662597222222109,26.87681944444481
55800,55800.0,1.9983673,-9.62287125,1.1562042,0.25521851,0.287582395,0.26877594,-38.56987015,45.29586775,-136.3151575,9.901097108240002,0.4737492215450298,148.7319294180604,11.616499999999885,26.864500000000373
55900,55900.0,2.1839218,-9.666565,0.52532959,0.322860715,-0.0703506475,0.27836609,-37.21870435,45.206987,-137.4861165,9.92468020504582,0.43209726039335705,149.43675499737816,11.570402777777664,26.852180555555925
56000,56000.0,1.1902031000000002,-9.45030635,0.9397667075,0.17442245399999998,0.14781646699999998,0.1504745495,-36.53129550000001,45.4899597,-138.1349965,9.572321309878564,0.2757929594444461,149.950579055335,11.524305555555447,26.839861111111478
56100,56100.0,1.51431578,-9.190528,1.36036915,0.0593681338,0.367737585,0.229090121,-35.504913099999996,45.42625375,-138.90563899999998,9.414458204944863,0.43778480692969607,150.3960602635545,11.478208333333221,26.827541666667038
56200,56200.0,1.782772815,-9.76831425,1.503775025,0.051226806500000006,0.5223121620000001,0.2182220425,-34.0340422,45.75431845,-139.17358000000002,10.043326536806573,0.5685515625414148,150.4032111868868,11.432111111111,26.815222222222594
56300,56300.0,2.408786755,-11.870906800000002,0.15519103999999995,-0.08843383795,-0.2095199595,-0.03146972585,-33.24376052631579,46.2186312631579,-139.65759263157895,12.136561723056172,0.2373545997894285,150.81656139640984,11.386013888888776,26.802902777778147
56400,56400.0,1.8711531842105265,-9.893449421052633,-0.9306608494736842,-1.5186390421052631,-0.08885112410526316,-0.6097620684210526,-34.80232225,47.1245565,-136.30294650000002,10.12254829446718,1.6395650752809956,148.35991711791448,11.339916666666555,26.79058333333371
56500,56500.0,-0.477484136,-12.0502228,-0.08231506400000001,-1.63019412,-0.21650085,-0.637869264,-38.0935676,48.1516262,-128.587721,12.062529418610803,1.7642632566355103,142.4948529805472,11.293819444444333,26.778263888889263
56600,56600.0,1.30309144,-8.8774382,-0.1833526616,-0.561093144,0.040655518019999996,-0.5971771300000001,-40.1676941,47.8486636,-123.62197749999999,8.975474431235668,0.8294531890986787,138.51163100876076,11.247722222222107,26.76594444444482
56700,56700.0,0.48953857799999995,-7.66883846,-0.96051027,0.274923704,-0.509454344,-0.49043578,-42.5894928,46.86195465,-122.97630375,7.753665966122662,0.7659214309233229,138.3226193619436,11.201624999999886,26.753625000000376
56800,56800.0,2.4472808999999995,-8.498666199999999,-3.11193852,0.123022458,-0.39013976,-0.146145626,-43.4442915,46.58035225,-122.46574150000001,9.377311002218905,0.4344268208644679,138.03984680831718,11.155527777777664,26.74130555555593
56900,56900.0,2.5061798,-8.7725677,-2.30270384,0.227206424,-0.223742678,0.222860716,-43.384857,46.6117861,-123.122024,9.415653176282772,0.3933159806686071,138.6145494158639,11.10943055555544,26.72898611111149
57000,57000.0,3.67095336,-9.2921048,-3.44856262,0.299429324,-0.368838496,-0.1504089376,-42.97409035,46.72058105,-123.67111025,10.57019250311037,0.500540244490515,139.01139398637667,11.06333333333322,26.716666666667045
57100,57100.0,-0.21100464,-9.0972168,-1.7651947,0.5216430599999999,0.31889953600000004,0.382861336,-42.808608,46.8694294,-124.5649702,9.270230030885251,0.7243326550101259,139.80613998345794,11.017236111110996,26.7043472222226
57200,57200.0,2.267776452631579,-9.403643052631578,-1.6020419410526316,0.11810864789473685,0.8715699815789475,0.032031410789473684,-41.47178645,47.1621708,-126.0630035,9.864809823445821,0.8845295084174669,140.84056622987438,10.971138888888774,26.692027777778158
57300,57300.0,2.07851707,-10.26798325,-0.5779129025,0.474553674,0.388243096,0.4706413255,-40.372105947368425,47.31830789473684,-128.5046231578947,10.506529015278828,0.788298181320887,142.76734063272204,10.925041666666553,26.679708333333718
57400,57400.0,1.954976595,-9.56618995,1.14567184,0.41176147700000004,-0.436267856,0.270104982,-39.09500050000001,47.1116636,-129.729993,9.84528229790393,0.6611985132039306,143.44964894556426,10.878944444444327,26.66738888888927
57500,57500.0,1.55315702,-10.080817,0.405683896,0.5189315779999999,-0.1151412966,0.0056053164500000025,-38.60647857142858,47.14442657142857,-131.6659085714286,10.21172626222447,0.5322561305346813,145.0826402801863,10.832847222222107,26.655069444444827
57600,57600.0,0.9571304425,-9.3180238,0.910559096,0.12280120900000001,0.1173469555,0.04794616527,-38.66753752631579,46.83861994736842,-132.96050842105262,9.41699782496989,0.1819716091122908,146.17642835378754,10.786749999999882,26.642750000000387
57700,57700.0,1.060916925,-9.788788425,0.1057426445,0.366429135,-0.0829742425,0.25450287050000003,-37.75299,46.723024,-133.57299999999998,9.847238721569207,0.4542027166438564,146.45857922632212,10.740652777777662,26.63043055555594
57800,57800.0,1.98340376,-9.38560035,1.2692085,0.1772903475,0.033246612700000004,0.3651886,-36.43096920000001,46.9091794,-134.573668,9.677100241748027,0.4074072020414597,147.09798788934947,10.69455555555544,26.6181111111115
57900,57900.0,1.16266786,-9.356875375,0.73805236,0.2031311045,0.2027343785,0.2051734955,-35.06713920000001,46.7520148,-135.24902200000002,9.463234188770294,0.3549788902610897,147.33553776387032,10.648458333333217,26.605791666667052
58000,58000.0,1.960772675,-9.42301235,1.775402075,0.001159668,0.5876098574999999,0.2372428905,-33.3340456,47.009887400000004,-135.94603999999998,9.78944175730786,0.6337504265112903,147.6564719429719,10.602361111110994,26.59347222222261
58100,58100.0,0.49905854450000003,-11.782317525,0.6656898590000001,0.1181220981,-0.2356742865,-0.002385711650000004,-32.166443,47.4765012,-136.086734,11.838121397096135,0.266356339735761,147.67638042281953,10.556263888888774,26.58115277777816
58200,58200.0,1.444866,-9.868992315789473,-0.3234758952631579,-0.9871817842105264,0.2612834689473684,-0.2623186621052631,-32.2775264,47.888184,-134.626158,9.985539070933145,1.0582765339280162,146.4903672814649,10.510166666666551,26.568833333333718
58300,58300.0,-0.7571212740000001,-10.369256300000002,-0.547872923,-1.61112212,-0.339122008,-0.63126373,-34.133546190476196,48.78162195238095,-128.55725857142858,10.414806692173064,1.7645258612908348,141.675878896276,10.464069444444329,26.55651388888928
58400,58400.0,0.93043364,-9.743893199999999,-0.408650209,-0.8759872479999999,0.15249939099999998,-0.463272091,-36.10588075,48.9904023,-122.72583,9.799818629323923,1.0033334337950408,136.98680799079196,10.417972222222105,26.544194444444837
58500,58500.0,1.1236480599999998,-8.068432399999999,-0.587139891,0.093302916,-0.5143447870000001,-0.501310722,-38.04344125,48.82888785,-120.91743249999999,8.169644521039272,0.7286369371636217,135.84125146047018,10.371874999999884,26.53187500000039
58600,58600.0,1.47511443,-8.9832625,-2.38901215,0.0814804095,-0.624710075,-0.367291262,-39.3513486,48.61968995,-120.17967240000002,9.412953360778992,0.7295942927067866,135.4827317143079,10.32577777777766,26.51955555555595
58700,58700.0,2.113884,-8.2052568,-2.18395076,-0.086732485,0.06675262529999999,-0.244999694,-40.398788700000004,48.62358095,-120.57098365,8.7523316270292,0.2699232731154125,136.1385185780954,10.279680555555435,26.507236111111503
58800,58800.0,3.28453674,-8.7565258,-2.98660275,0.27450104,-0.48984985200000003,0.010237121822000001,-40.685806,48.4395593,-120.54954725,9.820941126851858,0.5617912299982801,136.1393743645149,10.233583333333216,26.49491666666706
58900,58900.0,2.726200075,-8.62417975,-2.616161325,0.566276555,-0.356376655,0.08980941799999999,-40.05683925,49.227371999999995,-121.70318825,9.416944850593476,0.6752113160940703,137.25746985777414,10.187486111110992,26.482597222222616
59000,59000.0,1.5590323999999998,-12.68714525,-2.985771175,0.4339179975,-0.11802292,0.48369217,-38.92921555,49.923021000000006,-124.3045035,13.140785769329407,0.6835345761444523,139.49699637412806,10.14138888888877,26.470277777778172
59100,59100.0,-1.0075492855,-7.584804400000001,2.5801506,0.38784028,0.5304641725,0.130558015,-37.89924605,50.1192465,-124.881747,8.096930843692839,0.6849045180232735,139.79898645050395,10.095291666666547,26.457958333333732
59200,59200.0,1.793964375,-10.67601775,-0.489810945,0.40328598,0.55255889,0.16971206749999998,-36.58843995,50.90103195,-127.953341,10.840466458297298,0.7110170033932911,142.4843562630599,10.049194444444323,26.445638888889285
59300,59300.0,2.7414627,-10.38961425,1.87805935,0.3875732425,-0.17740631,0.1705017125,-36.002960200000004,50.7868199,-129.779357,10.9178425319465,0.4607948306694477,143.93817706946243,10.003097222222102,26.433319444444837
59400,59400.0,0.708190925,-9.62376375,0.487319945,0.35429001,0.174926755,-0.13895798,-35.7153316,50.9159084,-131.49681049999998,9.662176199542142,0.4216015543893201,145.46292760033683,9.95699999999988,26.4210000000004
59500,59500.0,1.7812073,-9.580612400000001,0.8693755999999999,0.21975097600000001,0.23346252399999998,0.09758606199999999,-35.73043825,51.05079635,-133.10226550000002,9.78374538659038,0.33693922894176576,146.96627066309918,9.910902777777656,26.408680555555954
59600,59600.0,1.38664552,-9.510226199999998,0.51694642,0.27492371,0.14888610800000002,0.342596434,-34.546584499999994,51.1154955,-134.3997915,9.625369161664745,0.4650259958827411,147.8841206602043,9.864805555555435,26.396361111111514
59700,59700.0,1.75128478,-9.6292084,1.0949158,0.20824585,0.16656188800000002,0.34238586600000004,-32.6334386,51.545104,-135.64735100000001,9.848263621255832,0.4341638592567271,148.73504926482863,9.818708333333213,26.384041666667066
59800,59800.0,1.7426666000000002,-9.5636168,1.0647460800000002,0.05100708,0.488064576,0.251202394,-30.97190825,52.1324156,-135.7585855,9.779676989352444,0.5513272247369607,148.68587341675533,9.77261111111099,26.371722222222623
59900,59900.0,2.64575192,-10.873235800000002,1.9302429,-0.046356201,0.08901367119999999,0.14552917599999998,-29.4122314,52.6712799,-136.51229750000002,11.357136886743676,0.1836839633761931,149.24795662780778,9.726513888888768,26.359402777778183
60000,60000.0,0.85010376,-10.6331052,-1.4659302200000002,-0.496115114,-0.31408387,-0.243505862,-30.20156047368421,53.757356789473675,-135.2367205263158,10.775721824560387,0.6380940008435935,148.63071484018798,9.680416666666543,26.34708333333373
60100,60100.0,-0.90628054,-9.8173916,-0.7593933159999999,-1.73778076,-0.476858526,-0.725643928,-33.192748800000004,55.68344079999999,-129.209753,9.916414504581876,1.9429823559826571,144.5626818412315,9.634319444444325,26.334763888889288
60200,60200.0,0.16512222044999994,-10.9782298,-0.51435013,-1.214635455,0.4962684725,-0.592172245,-36.30584800000001,56.1611934,-121.59942520000001,10.991853511467928,1.443410945640852,138.77697276174194,9.588222222222099,26.32244444444485
