Unnamed: 0,st,ax,ay,az,gx,gy,gz,mx,my,mz,AccTotal,GyrTotal,MagTotal,lat,lng
13000,13000.0,0.62409209,-10.948955625,-0.26595307500000004,-1.455593125,-0.1001815775,-0.7802429399999999,-41.984252000000005,41.721802000000004,-127.7172864,10.994065031577053,1.6551266299256973,140.7670499457284,33.19,32.63
13100,13100.0,3.624332475,-9.6117895,-0.3943366975,-0.3937988325,-0.4139022775,-0.8875656175000001,-45.1809696,40.7785036,-124.091798,10.282940080191482,1.061096786444773,138.21401500090258,33.13468333333333,32.61521666666667
13200,13200.0,1.3309860375,-7.5518875,-0.92195892,0.249095925,-0.86316681,-0.7040787,-48.4457396,39.2385862,-122.8097536,7.728583300493773,1.1448672172357044,137.7281606608127,33.07936666666666,32.60043333333333
13300,13300.0,3.343785,-7.991583099999999,-2.96229556,0.233277896,-0.37426452,0.08618926910000001,-49.553832799999995,38.8830564,-122.28973559999999,9.165531260735182,0.4506383037536919,137.55827791624912,33.02404999999999,32.58565
13400,13400.0,3.23641209,-7.58947295,-2.30856631,0.523878498,-0.186250301,0.182701112,-49.1140744,39.2648316,-123.65143,8.571560165067838,0.5873975549394433,138.72131498270542,32.96873333333332,32.57086666666667
13500,13500.0,5.18912369,-9.4953766,-4.0283203200000015,0.213780212,-0.436048893,-0.0436645504,-48.82721,39.927064,-123.834532,11.550427329254177,0.4884235530356137,138.97217690580106,32.91341666666665,32.55608333333333
13600,13600.0,1.4858825539999998,-12.8734784,-2.90771485,0.736506653,-0.19839019670000002,0.788516236,-48.1018064,40.614624,-126.040648,13.45413655602668,1.1398579457885578,140.88884564632178,32.85809999999998,32.5413
13700,13700.0,-2.16312253,-7.314019900000001,2.48630218,0.05367279110000001,1.0931366120000001,0.12602691800000002,-47.38739,41.069946,-127.09381100000002,8.039460234602599,1.1211378321578185,141.72268221388197,32.80278333333331,32.526516666666666
13800,13800.0,4.6661057999999995,-10.1385819,1.50467679,0.54934235,0.381536866,0.4727722170000001,-44.891662200000006,41.958312799999995,-130.155336,11.2778260409014,0.8453810965063567,143.93136182658952,32.74746666666664,32.51173333333333
13900,13900.0,2.12166601,-10.178315800000002,0.985020448,0.54742128,0.241455077,0.165658571,-44.1433716,41.7938232,-132.63061399999998,10.455767463923634,0.6213525668504077,145.89808259673222,32.69214999999997,32.49695
14000,14000.0,1.71501315,-9.0191759,0.980592332,0.11641693,0.583508302,-0.0005233764000000009,-43.6942298,41.63101215,-133.8127875,9.23464096278747,0.5959865886697131,146.7934412297787,32.6368333333333,32.482166666666664
14100,14100.0,2.26902923,-9.1381604,0.501268014,0.25234375000000003,0.64721375,0.227023316,-42.5778192,41.7169955,-135.6185165,9.429449397868648,0.7314291246527435,148.14049922193212,32.58151666666663,32.46738333333333
14200,14200.0,3.08821104,-8.9341754,1.6237975800000002,0.017245483420200002,0.322412111,0.255561826,-41.19873,41.7146302,-136.9359565,9.598223344039344,0.4172638594168523,148.95941323666526,32.52619999999996,32.4526
14300,14300.0,1.38700413,-9.4613786,0.916906708,0.16445617699999998,0.22728881900000006,0.201338199,-40.17677235,42.49275135,-137.55004499999998,9.611735824830149,0.3472567213157487,149.46523050900188,32.47088333333329,32.43781666666666
14400,14400.0,2.76546476,-9.7274978,1.115499871,-0.121461488,0.455885317,0.291043092,-38.74679570000001,42.79037460000001,-138.2544675,10.17974742728417,0.5562292507465071,149.82212611162208,32.41556666666662,32.42303333333333
14500,14500.0,3.952986955,-13.1672411,-0.713314043,-0.40087204,-0.4394081125,-0.3861961355,-38.6328125,43.2411195,-137.470168,13.848129380925682,0.7105371761647806,149.19969978193834,32.36024999999995,32.408249999999995
14600,14600.0,-0.2281188995,-9.02096225,-0.009239196000000005,-1.7842865,-0.2790901205,-0.6378212095,-41.3987735,43.6539461,-131.61506599999998,9.031634256848989,1.921092095645012,144.71468707732433,32.30493333333328,32.39346666666666
14700,14700.0,2.19822152,-11.26074135,-0.1714454645,-0.9228088259999999,-0.2972007765,-0.809323875,-44.0051271,43.357773200000004,-126.48185775,11.479529460657279,1.2636217271655268,140.7626790128197,32.24961666666661,32.37868333333333
14800,14800.0,1.39418563,-8.254942325,-0.14905090725000006,0.081634522,-0.07876510595000001,-0.7806732160000001,-47.05543535,41.47521915,-125.00762749999998,8.384905662043657,0.7996587873436131,139.86217325693974,32.19429999999994,32.363899999999994
14900,14900.0,1.280529045,-7.493048865,-1.841697715,0.1154037497,-1.018065635,-0.12942581255000002,-48.5942841,40.61920195,-124.33555600000001,7.829203671372173,1.0352181754646006,139.5373202698328,32.138983333333265,32.34911666666666
15000,15000.0,3.116341415,-8.003188,-1.671410365,0.2024894735,-0.10343246560000001,0.08901595975,-48.4501641,40.6918345,-123.6880477,8.749773469341639,0.2459926006134069,138.93164569734606,32.0836666666666,32.33433333333333
15100,15100.0,5.882542450000001,-9.6997216,-3.16718368,0.4224182125,-0.4068695105,-0.028009033150000005,-48.10112015,40.89302035,-124.73892175,11.778158262931333,0.5913802512078571,139.80649701913129,32.028349999999925,32.31954999999999
15200,15200.0,-0.31850279800000003,-8.056936579999999,-0.8501373080000001,0.632427984,0.08923034440000001,0.25502929399999996,-48.4136963,40.87684525,-124.95277225,8.156255735997707,0.6981256287062708,140.10022161008698,31.973033333333262,32.30476666666666
15300,15300.0,5.66557004,-11.4509642,-2.669253644,-0.0550964358,0.4192443956,0.2139160176,-46.32103035,41.9998925,-125.78346175,13.158270219270609,0.5603777266947795,140.46771197964648,31.917716666666603,32.289983333333325
15400,15400.0,0.978912348,-9.878695599999999,-1.19705202,0.7470550499999999,0.1331115736,0.624893172,-44.93751615,42.56500215,-128.12683049999998,10.039787256992678,0.9923315598121604,142.29475263518538,31.86239999999993,32.27519999999999
15500,15500.0,1.68568418,-9.2521298,2.10430906,0.340979004,0.061105347199999986,0.20752258199999998,-43.42033335,42.6447306,-130.047762,9.64759433792386,0.4071748988117533,143.58385593826566,31.807083333333267,32.26041666666666
15600,15600.0,1.82598568,-9.2870762,-0.299472048,0.495855696,0.0683410642,-0.12121582,-43.03031965,42.42027305,-132.1514875,9.474537686416653,0.5151211892123488,145.31060754286517,31.751766666666605,32.24563333333332
15700,15700.0,1.80946042,-9.3165315,1.2399963,0.14794922,0.37003173799999994,0.186004638,-42.75543195,42.3532097,-133.521958,9.57287654064682,0.4400788462117746,146.45811999956206,31.696449999999928,32.23084999999999
15800,15800.0,2.372821,-9.223395199999999,0.980227684,0.26640625,0.34659423,0.300408944,-41.23199520000001,42.2406777,-134.625935,9.576715964584697,0.5321072630848528,146.99845424156166,31.64113333333327,32.216066666666656
15900,15900.0,2.691365845,-9.13079715,1.243888095,0.10885009529999999,0.3017433135,0.2882713315,-39.648839263157896,42.97493431578948,-135.9905810526316,9.601477578092993,0.4315102835046206,148.0281658843145,31.585816666666602,32.20128333333332
16000,16000.0,2.551363405,-9.614842699999999,1.211383835,0.04526138315,0.332957457,0.198839574,-38.469696,43.2067875,-136.421965,10.021775555664878,0.3909526889632454,148.18153154756422,31.530499999999932,32.18649999999999
16100,16100.0,3.988542885,-10.49220335,1.09730834,-0.259034731,-0.360736083,0.004645538099999996,-37.79068,43.913269,-136.37848,11.283130162430167,0.4455055430511243,148.174412081859,31.47518333333327,32.171716666666654
16200,16200.0,1.66245427,-11.22213115,-1.989598075,-1.018836195,-0.578376772,-0.6633888130000001,-39.4851685,44.572449,-133.15277,11.537426287671773,1.353852515430314,145.86265727578825,31.419866666666604,32.15693333333332
16300,16300.0,0.465837104,-10.0919585,0.1595603915,-1.436530275,0.08555450379999999,-0.61112823,-42.3843385,45.0370785,-127.334595,10.129012771471828,1.5637872804827082,141.55900290697667,31.364549999999934,32.142149999999994
16400,16400.0,1.760616285,-9.56432725,-0.998816672,-0.81324464,0.1066978463,-0.766555015,-45.3338625,44.374084,-123.08426000000001,9.781304156701477,1.1265211049561972,138.47047789449292,31.309233333333268,32.12736666666665
16500,16500.0,2.80581665,-7.57522585,-1.0554428,0.0320434575,-0.41442871,-0.6595993,-48.342895500000004,42.822265,-121.60263,8.152272385964944,0.7875400603451543,137.68837335668246,31.253916666666605,32.11258333333332
16600,16600.0,2.3706665,-7.641670149999999,-1.8706665,0.19343567,-0.5273513750000001,0.0029907225000000014,-49.6543885,42.022705,-121.14563000000001,8.230575161721946,0.5641474131414643,137.5055116970496,31.198599999999942,32.097799999999985
16700,16700.0,2.59811405,-8.0385055,-2.5883255000000003,0.49436949999999996,-0.21949005,0.08608245699999999,-49.316406,42.590333,-121.327975,8.839561066533212,0.5555524484613035,137.71911004645426,31.14328333333327,32.08301666666665
16800,16800.0,6.1229781999999995,-10.7224045,-4.4959107000000005,0.31967163499999995,-0.21416473,0.0802230815,-48.737334999999995,43.203734999999995,-121.75827,13.14089774575838,0.3978151165241648,138.08319247065657,31.087966666666606,32.06823333333332
16900,16900.0,-1.7713089,-10.42732225,-1.773101785,0.61474608,0.18531799335000002,0.8807678299999999,-48.068238,43.493652000000004,-124.018098,10.823491496785646,1.111222985883022,139.93910354180406,31.032649999999943,32.053449999999984
17000,17000.0,0.9389267,-7.85295885,2.7956314,0.070396426367,1.26496125,0.10472107,-45.883179,44.338989500000004,-125.21972749999999,8.518287176487727,1.273754217482826,140.5389895212686,30.977333333333274,32.03866666666665
17100,17100.0,4.21659085,-10.5398485,0.718666095,0.6174087500000001,-0.230674745,0.56491851,-44.3862915,44.672393,-127.745055,11.386842624637122,0.8712922306991199,142.42424736837557,30.922016666666607,32.02388333333332
17200,17200.0,3.0124931150000003,-9.72474225,0.6763503925000001,0.571865825,0.3689155545,-0.0498474109,-43.669892,44.680023999999996,-130.47714,10.208513288904967,0.700609677585269,144.6640494899159,30.86669999999994,32.00909999999998
17300,17300.0,1.261007695,-9.13301625,1.371855155,0.255856325,0.232078555,0.1184120145,-43.678283,44.073487,-132.616425,9.325086576147577,0.3666779513605839,146.41512888459602,30.81138333333327,31.994316666666652
17400,17400.0,2.43075787,-9.866834125,0.4249542125,0.260119628,0.3695526105,0.2824165365,-42.5155635,44.168091,-134.0889,10.175282335210783,0.5332430862186087,147.4390344283677,30.75606666666661,31.979533333333315
17500,17500.0,2.75044479,-8.786098599999999,1.35312426,0.03145904525,0.24177627699999998,0.180464173,-41.445159999999994,44.11773700000001,-134.838105,9.309110899536606,0.30441107491127944,147.8022499676677,30.700749999999946,31.96474999999998
17600,17600.0,1.408976025,-10.154258775,1.21707609,0.1550254825,-0.005152892249999999,0.240016175,-41.007232,44.0689085,-135.08911,10.324202595397658,0.305050376188832,147.89437771924136,30.645433333333283,31.94996666666665
17700,17700.0,2.54549866,-9.815061199999999,1.0983803,-0.11906356975,0.31314087,0.2162544255,-40.2392577,44.82002235,-135.75905,10.202095369830417,0.39876371574878666,148.5217559732506,30.590116666666606,31.935183333333317
17800,17800.0,4.6355806,-12.131393199999998,-0.11032713999999988,-0.4366729740000001,-0.243771362,-0.01383667000000001,-39.1905976,44.8167422,-134.3234215,13.01710004933335,0.5188870157461599,146.92677449175855,30.534799999999947,31.92039999999998
17900,17900.0,-0.040780635999999926,-9.7115754,-0.6787139879999999,-1.64083862,-0.5884918219999999,-0.826849376,-42.09014975,44.46739215,-129.46754249999998,9.75229717379422,1.9299707935782773,143.21744810112673,30.47948333333328,31.90561666666665
18000,18000.0,1.13238524,-10.454019,-0.09835510199999996,-1.07667846,-0.21352234,-0.78721924,-44.53376665,43.2579039,-123.4410875,10.523204640374633,1.352339846972448,138.17536584623792,30.424166666666608,31.890833333333305
18100,18100.0,1.84705508,-9.1084716,-0.05549926800000002,0.012655639999999996,-0.24015502519999998,-0.903973392,-47.57049485,41.14028925,-121.52374125,9.294958032676748,0.9500390694790922,136.8340938911212,30.36884999999995,31.876049999999974
18200,18200.0,0.700225848,-7.77610176,-1.81691288,0.163284302,-0.682028188,-0.33022156,-49.3511201,39.65385375,-121.11641025,8.018876125698547,0.7766639019536317,136.66436400640234,30.313533333333282,31.861266666666648
18300,18300.0,3.81939088,-7.38201596,-1.95721436,0.116845706,-0.160690312,0.14338989400000002,-49.52232335,39.47090220000001,-120.4543315,8.543819661904747,0.2469824505325386,136.08706040074233,30.25821666666661,31.846483333333307
18400,18400.0,4.84051828,-9.4122924,-3.3932556000000003,0.6087798799999999,-0.47280272799999995,0.174923708,-48.65707379999999,39.9079125,-120.7369232,11.115885769631443,0.7954831131082264,136.1528764110755,30.202899999999946,31.831699999999977
18500,18500.0,2.3072792050000004,-7.757487425,-2.2069351000000004,0.350083164,0.030749512499999937,0.01742706325,-48.57360835,40.08987415,-121.3658898,8.443383408949355,0.4064347060565917,136.73441753421494,30.147583333333284,31.816916666666646
18600,18600.0,4.95358665,-13.83744095,-5.425692025,0.49969558799999997,-0.3352264405,0.71756975,-46.6651915,41.244202200000004,-123.57025125,15.708292842829971,0.947132805962988,138.3780489354454,30.092266666666607,31.802133333333305
18700,18700.0,-0.6462730554999999,-8.64854905,0.99567872125,0.5728820825,0.11437072604999997,0.3107460005,-45.41801415,41.0807031,-125.877154,8.857545814322574,0.7028705776463378,139.98391377455914,30.036949999999948,31.787349999999968
18800,18800.0,1.49379044,-9.7668215,0.8177238440000001,0.570217124,-0.03562316885,0.0679138178,-44.41864025,41.30470255,-127.59483325,9.927598038200788,0.5787023669567495,141.2782392007529,29.98163333333328,31.77256666666664
18900,18900.0,1.269692225,-9.369261075,0.057138823499999936,0.4503768905,0.17876892249999998,0.015081023800000006,-44.59045375,40.6974035,-130.21530149999998,9.460431567075881,0.4862298169189608,143.52927098568944,29.926316666666608,31.757783333333307
19000,19000.0,2.16667328,-9.8445086,0.421603401,0.3453468305,0.6841781554999999,0.20592193399999997,-43.97392365,40.79406705,-131.52869750000002,10.0891759076568,0.7957650302580338,144.56059931658953,29.87099999999995,31.742999999999967
19100,19100.0,2.49480135,-9.2667937,0.8656051499999999,0.1626495345,0.45748672049999994,0.2583885165,-42.39013610000001,40.8650207,-133.690717,9.636186786064636,0.5503702567968238,146.08253635754585,29.815683333333286,31.72821666666664
19200,19200.0,2.7540500368421053,-9.334276894736842,1.6429861105263155,-0.007927342515789474,0.4066041610526315,0.23488095315789476,-41.1738579,41.0621641,-135.0238785,9.870760335629068,0.47062646726129204,147.01324303671984,29.760366666666613,31.713433333333306
19300,19300.0,2.79288029,-9.5832382,0.5908142120000001,-0.103556824,0.195541379,0.163743589,-40.30540375,41.2799064,-134.966509,9.999736370884758,0.2763568479835332,146.78052607184566,29.705049999999947,31.698649999999965
19400,19400.0,4.4105238500000015,-12.1222945,0.2977615302,-0.46650085700000005,-0.216076657,0.016311644599999994,-39.869309,41.71440225,-134.248425,12.908703833098393,0.5251402426047178,146.12455982539626,29.649733333333288,31.683866666666642
19500,19500.0,-0.867498777,-10.050469900000001,-0.3596878049999999,-1.59759524,-0.74828644,-0.92837066,-42.74124065,41.479722100000004,-128.7020135,10.111491490967502,1.9935877627278884,141.81605199984844,29.594416666666614,31.669083333333305
19600,19600.0,1.66102446,-10.9632632,-0.807756044,-1.17052763,-0.1688842743,-0.576940925,-45.313720399999994,40.738220399999996,-123.51196200000001,11.126079103618961,1.3200958001115075,137.72524027534314,29.539099999999948,31.654299999999967
19700,19700.0,1.002136235,-8.493647900000001,-0.390567016,-0.291581722,-0.323989864,-0.70903321,-47.6138308,39.2248534,-120.856932,8.56149861915721,0.8364919160558942,135.69128091276409,29.48378333333329,31.63951666666664
19800,19800.0,1.47714993,-7.8810806000000015,-1.64668272,0.20877685399999998,-0.600532529,-0.32564698400000003,-49.3002322,38.0758664,-119.918517,8.1885421557485,0.7169128970720184,135.13252985773806,29.428466666666623,31.624733333333307
19900,19900.0,3.435485825,-8.794471875,-2.312099475,0.209144595,-0.1403923025,0.024303436499999997,-49.534302,37.92572020000001,-119.9713124,9.728152295164737,0.26304082166501525,135.22269012665728,29.373149999999953,31.609949999999966
20000,20000.0,3.82005695,-8.727131,-3.04741665,0.45388794,-0.5515823375,0.15132904,-49.478454600000006,37.871704,-120.5786136,10.002852521683515,0.7313807328257459,135.72641913872428,29.317833333333287,31.595166666666643
20100,20100.0,3.39479065,-8.53110475,-3.005512225,0.3758621325,-0.1931228625,-0.0875549325,-49.364929,37.948609999999995,-121.093446,9.662710413170712,0.4397677887187748,136.1640142032547,29.262516666666624,31.5803833333333
20200,20200.0,2.9488640750000004,-13.101940125,-4.489624025,0.4661445625,-0.1584968525,0.629631045,-48.2476804,38.78356940000001,-122.99621599999999,14.20271964944248,0.8026590070772166,137.69578299688314,29.207199999999954,31.565599999999968
20300,20300.0,-2.121757525,-6.9084357999999995,3.320858025,0.570007315,0.781059275,0.2104492225,-47.53784279999999,39.147644,-124.7808836,8.006636727702613,1.0352919584732627,139.1498595820645,29.151883333333288,31.550816666666638
20400,20400.0,2.1479988,-10.01881375,0.988014225,0.6440391449999999,0.3099555975,0.2432060225,-46.000366,39.85443,-128.255922,10.317011542029004,0.7692865622970634,141.96482795053993,29.09656666666662,31.5360333333333
20500,20500.0,1.867279075,-9.17934425,0.32841109875,0.3790626425,0.310482025,-0.027370452750000003,-45.6988524,39.20044,-130.833742,9.376181291648614,0.4920071878148298,144.0228289700274,29.041249999999952,31.521249999999966
20600,20600.0,2.036079425,-9.799446000000001,0.596858965,0.2192688025,0.426067355,0.105251315,-45.162048399999996,39.318236,-132.447204,10.029457852159732,0.4910515889215481,145.35407114938832,28.985933333333286,31.506466666666636
20700,20700.0,3.0078239,-9.2885815,0.59895325,0.1692047075,0.302230835,0.2924766525,-43.939514,39.4494628,-133.795468,9.78312763218765,0.4545890419053201,146.2472561185926,28.930616666666626,31.491683333333302
20800,20800.0,2.8266372200000003,-9.824937299999998,2.1007156300000003,-0.0006622314200000003,0.11884002619999999,0.244702147,-42.871704,39.7680664,-134.504394,10.438711919656654,0.27268148416973736,146.66600147972926,28.87529999999996,31.476899999999965
20900,20900.0,2.45757447,-9.74161845,0.450154121,-0.056687927200000016,0.345422364,0.172897335,-42.075806799999995,40.1251222,-134.951172,10.062096155894837,0.393286032926073,146.94304198422978,28.819983333333287,31.462116666666628
21000,21000.0,3.7309326,-12.7054018,-0.945787063,-0.5899597120000001,-0.572831722,-0.225720213,-41.641845200000006,40.7980344,-133.576358,13.28960965697203,0.8553886389227641,145.74369286946643,28.764666666666628,31.447333333333297
21100,21100.0,-1.1344502666666667,-9.923935333333333,-0.6194966666666666,-1.6745096999999998,-0.2471822133333333,-0.8275553533333333,-44.6200568,40.6427004,-128.5067736,10.02445261686881,1.8851169234688545,141.97569964980786,28.70934999999996,31.432549999999967
21200,21200.0,2.2861542,-10.624008,-0.1452850379999997,-1.19747624,0.109259034,-0.67515258,-46.83959960000001,39.9197388,-124.8513804,10.905369397867048,1.380102000943097,139.19586035046615,28.654033333333288,31.417766666666626
21300,21300.0,1.93300476,-8.225491400000001,-0.3267669679999999,-0.141378789,-0.599575806,-0.7595275859999999,-49.28886545,38.3666999,-122.5651575,8.469443932431114,0.9894008684124912,137.56344213858287,28.598716666666625,31.402983333333296
21400,21400.0,1.408908064,-7.55057072,-2.08770144,0.0309814452,-0.416351322,-0.0815917958,-50.65666210000001,37.42630105,-122.183379,7.975248944004843,0.4320673174455854,137.46128522418888,28.543399999999963,31.388199999999962
21500,21500.0,3.820115655,-7.65028991,-1.913822935,0.31689911000000004,-0.229610444,0.13103866449999999,-50.59934936842105,37.82308436842105,-121.5422805263158,8.763421276127668,0.4130526755598064,136.979631792953,28.488083333333286,31.37341666666663
21600,21600.0,4.72578805,-10.74945965,-4.32699279,0.649210346,-0.379173274,0.299294281,-49.29870579999999,38.258666399999996,-122.7615364,12.516851903107364,0.8096840053389179,137.71188829552372,28.432766666666627,31.358633333333287
21700,21700.0,-1.3742881925,-8.45916685,0.45517732,0.47711792,0.631072229,0.487895962,-48.80371160000001,38.7561032,-124.44610800000001,8.602335911774976,0.9445623855376412,139.17905758758096,28.37744999999996,31.34384999999996
21800,21800.0,3.924437625,-9.06412015,1.896255496,0.2988372825,1.353219619,-0.006965639499999982,-47.103576,39.627076,-126.750184,10.302557306176398,1.3990549858654326,140.90762802877816,28.322133333333287,31.329066666666627
21900,21900.0,3.38442763,-10.4896878,1.519583175,0.473965459,-0.029122921500000013,0.426651765,-46.437683,39.523314,-129.95696999999998,11.147499707284236,0.6566413018675468,143.55326886662013,28.266816666666628,31.314283333333286
22000,22000.0,1.21791228,-9.49059115,0.9337829425000002,0.585875704,0.3195877015,-0.024865723,-45.6079098,39.356078000000004,-131.860962,9.632915227397588,0.6818532450485879,144.9699860746283,28.211499999999962,31.299499999999963
22100,22100.0,1.026404806666667,-8.973206133333337,2.15730486,0.15597534,0.3771992986666666,0.10994059086666666,-45.26367,38.7936404,-133.644104,9.287014465814156,0.4235669075349031,146.33781202410728,28.156183333333296,31.284716666666625
22200,22200.0,2.351245075,-9.68210645,0.1389900207,0.26574400800000003,0.35637665,0.3227325455,-44.006042,39.0402224,-135.50659000000002,9.964851530984165,0.5494979657211471,147.72546507007957,28.100866666666626,31.269933333333288
22300,22300.0,2.950968155,-8.75132135,1.369862382,-0.017462158680000003,0.3564483625,0.286374671,-42.36466315789474,39.41963584210526,-136.57483473684212,9.337537299162904,0.457640698975205,148.32863707445645,28.045549999999967,31.25514999999996
22400,22400.0,2.39554056,-8.76763725,1.575879695,0.09623489390000001,0.2352584855,0.18225784050000002,-41.42608679999999,39.8681642,-137.70813,9.22487035917705,0.31304370077246074,149.22862238019968,27.990233333333297,31.240366666666628
22500,22500.0,3.4413245800000003,-9.99255985,1.03921661,-0.008486175649999997,0.0222000124,0.267447665,-40.1596068,40.0329588,-138.164976,10.619758481696858,0.27083828959367284,149.34868956738185,27.934916666666627,31.225583333333287
22600,22600.0,1.95970838,-12.173684699999999,-1.849183623,-0.6194511275,-0.5359520000000001,-0.34996261799999995,-40.335692,40.8068844,-137.251892,12.474138278460838,0.8919462768878161,148.76296427896781,27.879599999999968,31.210799999999963
22700,22700.0,-1.541769395,-9.4936172,0.1432418795,-1.706125635,-0.2843574485,-0.66291504,-43.02179242857144,42.27091476190476,-133.12297666666666,9.619442523495163,1.8524449331175703,146.1496107336261,27.824283333333298,31.196016666666626
22800,22800.0,2.30177845,-10.494396,-0.6772842490000001,-0.991674055,-0.0303520204,-0.58374023,-44.9029544,42.875671200000006,-127.720028,10.765712380854357,1.1558213018881336,142.0110662182917,27.76896666666663,31.18123333333329
22900,22900.0,2.35797728,-8.2009522,-1.21309812,0.193121336,-0.418902592,-0.825469992,-47.488403000000005,42.033386,-126.63422,8.623259099928262,0.9486561265149714,141.6269029285178,27.713649999999966,31.16644999999995
23000,23000.0,2.0597228750000003,-8.19472875,-2.5135155,-0.14319229349999998,-0.4601135225,-0.40647888,-50.535430299999994,41.07322725,-125.83404650000001,8.817710851564009,0.6309546555793217,141.68652226784738,27.658333333333303,31.15166666666662
23100,23100.0,2.131444108,-7.39025266,-1.5391455120000002,0.257293088,-0.2123107928,0.18805114879999998,-51.28479,41.00952,-125.379944,7.844317865682273,0.38409581990697145,141.53459214417384,27.603016666666637,31.136883333333287
23200,23200.0,4.94275979,-9.174549699999998,-4.24427342,0.503852848,-0.245481875,0.281666562,-50.13145520000001,41.9224546,-126.8625665,11.2553362779653,0.6288639768277192,142.70533120118884,27.547699999999967,31.122099999999953
23300,23300.0,2.8631760263157897,-7.844948184210527,-2.0852275684210526,0.20943812421052632,-0.2106853310526316,-0.06377933052631579,-50.39571233333333,42.026773333333345,-128.29996666666665,8.628717760274982,0.3054291358504124,144.1072936278313,27.4923833333333,31.107316666666623
23400,23400.0,4.588583077368422,-14.642716684210527,-6.326561568421052,0.3112038052631579,-0.4885559142105264,0.6845992,-48.5427849,42.9479979,-130.54626399999998,16.627033838813013,0.9013079186778356,145.75083527078084,27.437066666666638,31.092533333333286
23500,23500.0,-2.2325720684210526,-8.21693947368421,-0.045177259157894736,0.5640588115789473,0.3921958536842105,0.2260766294736842,-47.7543635,43.2138062,-134.132541,8.540822329939738,0.7275282717675803,148.79370439865426,27.38174999999997,31.07774999999995
23600,23600.0,1.0606133009999998,-9.52290725,1.025481425,0.5965820359999999,0.39415971,0.2259490955,-46.4320368,43.265075700000004,-136.70928899999998,9.63902137885068,0.7513732154627387,150.72274238531406,27.326433333333306,31.06296666666661
23700,23700.0,1.9613158157894737,-9.512582578947368,-0.014243677368421054,0.36519743263157894,0.35239129,0.074030023,-45.4676815,42.8070071,-139.423369,9.713595208586973,0.5180745239174426,152.77003429019217,27.271116666666643,31.048183333333288
23800,23800.0,2.22725219,-9.2201679,0.950178515,0.15476532,0.434800719,0.07255096400000001,-44.3136602,42.522736,-140.98312099999998,9.533852831056912,0.4680306699592032,153.77949337454712,27.215799999999966,31.033399999999947
23900,23900.0,1.81610715,-9.09476665,0.6590438775,0.2530303925,0.11105957,0.1896194455,-43.4037783,42.3544301,-142.66449,9.298359544243047,0.33606790043741136,155.01934531148237,27.160483333333307,31.018616666666613
24000,24000.0,2.524776257894737,-9.15987,1.1156254684210527,0.13324697789473686,0.2709254215789474,0.3335619578947368,-42.2488401,42.4192812,-143.769226,9.567263095709562,0.44994935497315997,155.736864857068,27.10516666666664,31.003833333333287
24100,24100.0,2.6953216,-9.7240234,1.0216492,0.0691131604,0.37343446,0.18132324,-40.6451414,43.00903380000001,-144.51705900000005,10.142550350678702,0.42251497896664186,156.163629123524,27.049849999999967,30.98904999999995
24200,24200.0,2.30919647,-10.08805925,1.616787715,-0.0357536319,0.45061950799999995,0.16086273,-39.26345840000001,43.0895999,-145.278474,10.474916979028576,0.4809276753956102,156.5382678213019,26.994533333333305,30.974266666666608
24300,24300.0,2.78377982,-11.190355699999998,-0.19059220149999997,-0.310219575,-0.316213233,-0.04031372014999999,-38.49914520000001,43.9669798,-145.65674199999998,11.565001282526099,0.454426956533021,156.94326883949415,26.939216666666642,30.95948333333328
24400,24400.0,0.3721008265,-9.910179,-0.93154145,-1.69208525,-0.295654295,-0.625511175,-40.8769224,45.7987976,-141.034089,9.97330274714214,1.8281095817708837,153.81573612741326,26.883899999999965,30.944699999999948
24500,24500.0,1.5500565,-10.946266,-0.05525970249999998,-1.3559952,0.08358001799999999,-0.62763977,-43.805695,47.37731940000001,-134.21875,11.057698722348402,1.4975852264532479,148.9240329199161,26.828583333333306,30.929916666666607
24600,24600.0,2.1126862,-8.404816,-0.052871704999999936,-0.163963315,-0.298843385,-0.61113739,-46.614533200000004,47.131501,-130.428469,8.676625171866476,0.7229624012041302,146.30778385525772,26.77326666666664,30.915133333333284
24700,24700.0,1.1735611,-8.823203999999999,-2.3381347999999997,0.185981745,-0.759048465,-0.6164626999999999,-50.0411985,45.5216985,-130.129395,9.211731412291106,1.0024456992805812,146.6640247565181,26.717949999999966,30.900349999999946
24800,24800.0,2.134539,-7.6525565150000014,-1.847138265,0.04680633525,-0.1596717825,-0.30385589550000003,-52.5071715,44.271088,-128.893891,8.157339806780223,0.3547583870799261,146.0501102439615,26.662633333333307,30.88556666666661
24900,24900.0,2.951799695,-8.1389428,-2.698162825,0.447607422,-0.52601701,0.33184051649999996,-52.7214049,43.998566,-129.120177,9.08205273216599,0.7663504242283721,146.2444561031321,26.60731666666664,30.870783333333282
25000,25000.0,4.863444415,-9.9216605,-4.06753091,0.31076660850000004,-0.18007126,-0.1393257115,-52.347565,43.63708475,-129.1549675,11.775897054638536,0.3906609657060696,146.03248865207354,26.551999999999968,30.85599999999995
25100,25100.0,-0.12738572500000012,-10.53925305,-1.4051093914999997,0.5716545129999999,-0.0014282269999999484,0.7201774535000001,-52.064896000000005,43.195343,-131.4270025,10.760677744011168,0.991055316007488,147.81671768222398,26.496683333333305,30.841216666666607
25200,25200.0,0.3053650050000001,-7.394943964999999,2.017581895,0.34842758,1.327646655,0.091565706,-50.420381,43.526840500000006,-133.63647500000002,7.784994274786294,1.3786129574516723,149.31714761997299,26.441366666666642,30.82643333333328
25300,25300.0,4.2511322300000005,-10.9916354,0.2306678745,0.514663715,0.33817748649999996,0.35942688,-48.460388,43.41087375,-136.92283500000002,11.788693702144982,0.7216176586628511,151.59452033384778,26.386049999999976,30.811649999999947
25400,25400.0,1.98729015,-9.85324865,1.378325665,0.6457954349999999,0.0225418092,0.1469589245,-47.98431375,43.063354499999996,-139.361195,10.159959172964106,0.6639466951851902,153.5529348625936,26.330733333333306,30.79686666666661
25500,25500.0,1.49079288,-9.765683,0.614633192,0.16988525799999998,0.287365724,-0.1073699964,-47.6955425,41.768646,-141.534045,9.897945273101582,0.3548004502262576,155.08550260595484,26.275416666666647,30.782083333333283
25600,25600.0,2.0783356,-9.3799742,1.0633056600000002,0.20440063600000002,0.284805298,0.1335907,-47.283936,41.3444525,-142.57240000000004,9.66849621212874,0.3758135347307286,155.7948971242933,26.220099999999977,30.76729999999995
25700,25700.0,1.81185608,-9.44653,0.45757751,0.21953125399999998,0.250296012,0.23755798,-46.18988175,41.12930325,-143.59779500000005,9.631286686893372,0.40941631553623997,156.3506038798251,26.164783333333308,30.752516666666608
25800,25800.0,2.34840084,-9.7656864,1.37790828,0.10768127599999999,0.17999268,0.28315735,-44.658660999999995,41.3612365,-144.36645,10.139158742911135,0.355024124352012,156.67439447250578,26.109466666666645,30.737733333333274
25900,25900.0,2.06062008,-9.5032804,0.84783326,0.024591064799999996,0.34681091399999997,0.219451906,-43.389891999999996,41.048432500000004,-145.0759875,9.764470025778733,0.41672018906885205,156.89080768215987,26.054149999999982,30.722949999999944
26000,26000.0,2.9888489,-10.201184,2.29177246,-0.07214050400000001,-0.187960812,0.34643249800000003,-42.10014425,41.608809,-145.04737749999995,10.874268531493488,0.41014331128389786,156.66032766466606,25.998833333333305,30.708166666666607
26100,26100.0,1.1150246000000001,-11.67846395,-2.39559176,-0.537493129,-0.15391692699999998,-0.1197296114,-42.55981475,41.86782875,-144.0425875,11.976895160012331,0.5898005367736405,155.92476641112418,25.94351666666665,30.693383333333273
26200,26200.0,1.302610775,-9.33347395,-0.00587615599999991,-1.63269576,-0.34700470299999997,-0.6829856999999999,-43.88046275,43.39103725,-138.654705,9.446451862448452,1.8043408738012885,151.76805229958367,25.88819999999998,30.678599999999943
26300,26300.0,0.305968475,-11.3986427,-0.7494048879999999,-1.0579330649999998,-0.2011093145,-0.8551803590000001,-47.6036065,43.07861275,-132.674405,11.432816309988484,1.3755421529131493,147.39252786632088,25.832883333333317,30.6638166666666
26400,26400.0,2.058576945,-8.256977875,-0.40151901,-0.036128999,-0.12835006549999994,-0.91521377,-50.3864275,41.640091999999996,-129.9663525,8.521799663374367,0.9411370532322056,145.4787426714418,25.77756666666665,30.649033333333268
26500,26500.0,0.76247636,-8.08429795,-1.80039215,0.18091964649999998,-0.869453433,-0.3293655455,-52.97622675,39.6110525,-128.16734,8.321127870195365,0.94789546951119,144.2307125583269,25.72224999999998,30.634249999999934
26600,26600.0,2.64647749,-7.86749484,-1.968709585,0.25452651800000003,-0.14688720700000002,-0.0922996525,-53.4507755,38.66081250000001,-126.85546950000001,8.533167277460855,0.3112953976010617,142.9824440557452,25.666933333333315,30.619466666666604
26700,26700.0,4.25298922,-9.282113525,-3.1107445,0.264485171,-0.177728269,0.14147567900000002,-53.25584250000001,38.3529655,-127.13318100000001,10.676440744552616,0.3525947600795101,143.07373313109784,25.611616666666652,30.604683333333266
26800,26800.0,2.44680629,-8.4173843,-2.24895174,0.37314453,-0.26550598299999995,0.1198547349,-53.010864600000005,37.674865999999994,-127.006228,9.066065854709288,0.4942975910970174,142.6890159421587,25.556299999999986,30.589899999999933
26900,26900.0,3.82980952,-12.7472991,-4.880537400000001,0.22166443100000002,-0.009951782800000005,0.425479121,-51.2673952,38.5791012,-128.547062,14.204218015785393,0.4902666144629687,143.67012062643596,25.50098333333332,30.575116666666602
27000,27000.0,-0.68445433,-7.76963812,1.6919006399999998,0.371333312,0.3016464232,0.412051389,-50.0119016,38.3001708,-131.161502,8.020885587988449,0.7050850231989162,145.50424027439084,25.44566666666665,30.56033333333327
27100,27100.0,3.28632809,-10.0976353,0.5654342609999999,0.6579971299999999,-0.10272827259999998,0.29156951600000003,-48.7155152,39.2068486,-132.433468,10.637151782597504,0.7437353740520068,146.45496795721712,25.390349999999987,30.545549999999928
27200,27200.0,1.79210813,-9.6770982,-0.3666259790000001,0.425451666,0.1024307268,0.052955628000000005,-48.348388799999995,37.8305056,-134.423218,9.855821626674793,0.4524764708777795,147.7782011889177,25.33503333333332,30.530766666666604
27300,27300.0,1.64809266,-9.46939695,1.37754972,0.17521514700000002,0.475277716,0.15574951,-47.6538076,37.7954094,-135.910032,9.710985931963153,0.5301909674544755,148.89904290501684,25.27971666666665,30.515983333333267
27400,27400.0,2.3167925157894738,-9.617486736842103,0.35515072315789475,0.22250607631578947,0.3976922278947369,0.13457689684210528,-46.3732908,37.624511600000005,-137.698666,9.89918567021164,0.4760199032623889,150.09011021284158,25.224399999999985,30.50119999999993
27500,27500.0,2.984184225,-9.57229275,1.392334,0.08690643299999999,0.187980655,0.1318931575,-45.303426421052635,37.60062736842105,-138.20840736842104,10.122937442981003,0.24637970385066896,150.22574813353498,25.169083333333322,30.486416666666603
27600,27600.0,1.618286125,-9.61328875,0.6127166775,0.0970230105,0.25561904750000003,0.23441696,-44.3679814,37.41088900000001,-139.12628,9.769394508499756,0.3604356009432656,150.7456239013455,25.11376666666665,30.471633333333262
27700,27700.0,2.729492175,-9.47173725,1.39831925,-0.1386680625,0.409820555,0.207519535,-42.75177,37.688294,-139.723206,9.957026673029898,0.4801768486120736,150.89962374760282,25.058449999999986,30.45684999999993
27800,27800.0,3.51000215,-12.3657305,-0.4317512749999999,-0.2414550725,-0.567565915,-0.01032638625,-42.396546,38.493653,-138.125912,12.881717206665053,0.6213897819893272,149.52668187643914,25.00313333333332,30.4420666666666
27900,27900.0,0.6375618000000001,-9.120082875,-0.956378945,-1.6225815,-0.417362215,-0.5858344974999999,-43.959352,38.789978000000005,-134.57702400000002,9.193941083548069,1.7750212054554688,146.79328615013173,24.94781666666665,30.427283333333264
28000,28000.0,1.729015375,-11.05670175,0.4451255875,-1.1208382,-0.19898223899999998,-0.72192384,-45.805969399999995,38.9105224,-129.388432,11.205397068265214,1.3508458742316367,142.66648485060298,24.89249999999999,30.412499999999927
28100,28100.0,1.12855526,-8.895868,-0.8211700140000001,-0.29137268,-0.298107912,-0.71073608,-47.88848880000001,38.0364986,-125.79681399999998,9.015449438327307,0.8334458964749353,139.874802005325,24.83718333333332,30.397716666666604
28200,28200.0,0.5560974160000001,-7.76580198,-1.28492734,0.018408203,-0.54311217,-0.45592041,-49.9633786,37.075806,-124.213866,7.893953491843245,0.7104741232921625,138.9246027837707,24.78186666666665,30.382933333333263
28300,28300.0,3.42626344,-8.03563232,-2.25696414,0.010317993,-0.181777952,-0.051757812199999996,-50.3427124,36.35253940000001,-123.03741399999998,9.023867110960081,0.19264268618333635,137.81923474348775,24.72654999999999,30.36814999999993
28400,28400.0,2.79204098,-8.052148200000001,-2.596704,0.652886968,-0.196475222,0.253329468,-50.288696,36.355284999999995,-123.741147,8.911498928021897,0.7276809256766456,138.4288688823963,24.671233333333326,30.353366666666595
28500,28500.0,5.4132112,-10.926157,-5.14126284,0.29899902599999995,-0.6632720999999999,-0.1589324959,-49.5904552,36.2805174,-124.780271,13.2440924382277,0.7578439852292077,139.08849735535892,24.615916666666656,30.338583333333265
28600,28600.0,-0.6793060240000001,-11.1727602,-0.8391204999999999,0.6545837379999999,-0.3562652619999999,0.81621094,-49.26773095,36.52099595,-126.08795159999998,11.300062019339176,1.1572478076713535,140.21161229952943,24.56059999999999,30.323799999999927
28700,28700.0,-0.8435486199999997,-7.111706399999999,3.8178314,0.227410886,1.26335752,0.057955933,-47.6051334,37.50503575,-127.0939655,8.316589456699322,1.2855766945911424,140.80405459350106,24.505283333333324,30.309016666666594
28800,28800.0,3.99788963,-11.1048177,0.8405326790000001,0.4929389925,0.35948867549999997,0.24518203800000002,-46.340789,38.06434625,-129.990692,11.836514667024884,0.6609683683266224,143.15713732501845,24.449966666666654,30.294233333333263
28900,28900.0,3.09664685,-10.628909,0.6313316420000001,0.635736075,0.04731140234999999,-0.06283798235000003,-46.0160835,37.9629516,-132.09541000000002,11.100661848751507,0.6425336039695628,144.94089693687366,24.39464999999999,30.27944999999993
29000,29000.0,0.5265319804999999,-9.05316275,0.475295255,0.26380081749999995,0.047899628950000016,-0.031259155449999985,-46.14959825,37.322998,-133.9030425,9.082365599964264,0.2756687325569527,146.46780365055028,24.339333333333325,30.26466666666659
29100,29100.0,1.97634275,-9.476045225,0.671498865,0.281153111,0.1521270725,0.222545625,-45.4834749,37.0095074,-134.71366799999998,9.703209617804939,0.39125981972416746,146.92253661551837,24.28401666666666,30.249883333333262
29200,29200.0,2.61217959,-9.45803365,0.591468809,0.22837524550000002,0.28635406350000003,0.36582030950000005,-44.30786155,37.417603,-136.3536025,9.830233945250189,0.5178153812415883,148.17411937411967,24.228699999999996,30.235099999999925
29300,29300.0,2.23263929,-9.69241695,0.8221496604999999,0.2241638175,0.276338962,0.2568489055,-42.7674102,37.6671597,-137.202606,9.98187376888165,0.4391527258669157,148.567932873163,24.17338333333333,30.220316666666587
29400,29400.0,3.07419431,-9.899400199999999,1.13489071,0.042160035,0.436181644,0.23757019199999999,-41.2250519,37.82836975,-138.122252,10.428594020677416,0.4987487794491637,149.02433450685663,24.11806666666666,30.205533333333253
29500,29500.0,3.05157169,-11.1902314,0.966816734,-0.158319095,-0.2031845076,0.012048340199999992,-40.09613145,38.22410725,-138.3013885,11.639478653392553,0.2616670899100595,148.98345058968832,24.062749999999994,30.190749999999923
29600,29600.0,1.57519377,-10.6334549,-1.35171663,-1.2994246999999999,-0.263481138,-0.6804809559999999,-41.1170192,38.78822305,-136.0027345,10.83528443217982,1.4910552329430267,147.2817049186311,24.00743333333333,30.17596666666659
29700,29700.0,-0.0051086410000000795,-10.9553647,-0.7825027440000001,-1.4692352199999998,-0.042868041,-0.505677787,-42.79457115,39.91043045,-130.3787995,10.991098434167766,1.5546296229726662,142.9086807287038,23.95211666666666,30.161183333333256
29800,29800.0,2.04936057,-8.8946765,0.23276519399999998,-0.6489761359999999,0.149736029,-0.6182724150000001,-44.221421500000005,40.11841,-126.09855725,9.132729606344883,0.91202413468994,139.52017217030084,23.896799999999995,30.146399999999925
29900,29900.0,1.27148898,-8.040785000000001,-1.25512087,0.40307616799999996,-0.487823488,-0.527941915,-45.77323895,39.07264715,-125.29518,8.240027726185044,0.826186628862977,138.99926824564952,23.84148333333333,30.131616666666588
30000,30000.0,2.08809441,-8.152463099999999,-2.06591876,0.03055191037,-0.273604584,-0.14050064199999998,-47.0287321,39.169693,-125.23445159999999,8.665744737132107,0.3096137401976831,139.39023072177716,23.786166666666666,30.11683333333325
30100,30100.0,3.24538565,-8.973744975,-2.333650215,0.33512037899999997,-0.28191833,0.173165134,-46.7067704,39.137192,-124.60586475,9.824543009062433,0.4710749735029627,138.7079048443792,23.73085,30.102049999999924
30200,30200.0,4.1800209200000005,-9.325873275,-2.8666604,0.280681607,-0.34843139549999996,-0.1197761525,-46.542893400000004,39.27765,-125.53138899999999,10.614404725327267,0.4640202380463429,139.52463537608935,23.67553333333333,30.087266666666583
30300,30300.0,0.09174575550000001,-11.28671845,-1.2941467749999995,0.6615669150000001,0.0471496582,0.6537666375,-46.219330600000006,39.60235700000001,-126.776048,11.36208249653236,0.9322095941691656,140.62986185685526,23.620216666666664,30.07248333333325
30400,30400.0,1.19283065,-7.31294615,2.186493705,0.07806015020000001,1.26277157,-0.0937286366,-44.75956894736842,40.213735684210526,-127.77501263157896,7.764502654411107,1.2687720302332048,141.23391830706655,23.5649,30.057699999999922
30500,30500.0,3.6297126000000004,-10.71707525,1.266760976,0.4281105065,0.12971038699999998,0.35612716899999997,-43.83665363157895,40.613917578947365,-129.44046894736843,11.392529600622106,0.5723652709980971,142.56925985838032,23.50958333333333,30.042916666666585
30600,30600.0,2.04038162,-9.7192967,1.69538495,0.636111427,0.105734255,0.2143333405,-43.0397035,41.0636906,-131.78635,10.075326218736762,0.6799727887002224,144.5901036869976,23.454266666666665,30.028133333333248
30700,30700.0,1.4608611999999999,-9.016541,0.86650085,0.17053223,0.34403992,-0.115249634,-42.8132633,40.6062319,-133.58428600000002,9.175126744268832,0.4009079522278315,146.03631370720424,23.39895,30.013349999999924
30800,30800.0,1.6739502,-9.477416999999999,0.6629944000000001,0.18544006,0.32699585,0.22882080000000002,-41.9151304,40.34820600000001,-134.100496,9.64692198778452,0.4400832424470013,146.1773900177181,23.34363333333333,29.998566666666584
30900,30900.0,2.2641296000000004,-9.445099,0.32540894,0.25575256,0.28544617,0.3971405,-40.9034732,40.9077451,-135.753479,9.71813093879832,0.5519143635152762,147.56539285349385,23.28831666666667,29.98378333333325
31000,31000.0,2.5777588,-9.477416999999999,1.0281067,0.18331909,0.18743896,0.31724548,-39.1429124,41.1863725,-136.80251900000002,9.875387425790006,0.41156281059485933,148.13316902313989,23.233,29.968999999999923
31100,31100.0,2.981186,-9.625854499999999,1.0628357,0.01713562,0.5198059,0.17236328,-37.702788899999994,41.2660225,-137.468873,10.132826088854022,0.5479059257207872,148.3983753983749,23.17768333333333,29.954216666666586
31200,31200.0,2.500348738095238,-11.64889738095238,1.4361514,-0.014464606,-0.06998988542857143,0.06351216666666668,-36.730346000000004,41.87622070000001,-137.624353,12.00071448608933,0.10071940288190652,148.46959089718484,23.12236666666667,29.93943333333325
31300,31300.0,1.645043965,-10.4874744,-1.72509846,-1.2493591215000002,0.04320984,-0.5883377115,-37.51983660000001,42.2865293,-135.18555,10.755028878474178,1.381789478739207,146.5302005261214,23.06705,29.924649999999914
31400,31400.0,-0.06262893451999996,-10.57294575,0.33319168050000003,-1.5739501800000002,0.009436035499999995,-0.4994979885,-40.0216679,43.5260005,-129.20501299999998,10.582940255877554,1.65138275517315,142.0924128006316,23.011733333333336,29.90986666666658
31500,31500.0,2.2449646,-9.744369500000001,0.5253296,-0.6795502,0.02659607,-0.66386414,-41.95907570000001,43.1417849,-123.38104299999999,10.013419705396332,0.9503743586805278,137.2759982533117,22.95641666666667,29.89508333333325
31600,31600.0,1.7110596000000002,-7.7428284,-1.125473,0.38571167,-0.5848694000000001,-0.7639923000000001,-44.763490399999995,42.040254,-123.175048,8.009107694389414,1.0365953607313891,137.63464543605238,22.901100000000003,29.880299999999913
31700,31700.0,1.7733153999999998,-8.675369,-2.3321533,-0.01802063,-0.513504,-0.11845398,-46.263734,41.4179996,-121.616974,9.156725059143092,0.5272973037096219,136.5521781131244,22.845783333333333,29.86551666666658
31800,31800.0,3.424118,-8.240814,-1.9825897000000001,0.18437195,-0.1630249,0.12017822,-45.892334000000005,41.4479066,-121.54167450000001,9.141458383598652,0.27388490014818434,136.36867907905847,22.79046666666667,29.850733333333245
31900,31900.0,3.8802032,-8.608322,-3.2000427000000005,0.25256348,-0.27700806,-0.06944275,-45.81812852631578,41.61449168421053,-121.87411710526315,9.969927673298214,0.38124017661080334,136.69079363171022,22.735150000000004,29.835949999999908
32000,32000.0,1.4825287,-8.4651517,-1.07536853,0.6309959395,-0.0968711875,0.248855587,-45.997009600000005,41.5150453,-122.5845336,8.66541777682391,0.6868956453749417,137.35429527296273,22.679833333333335,29.821166666666574
32100,32100.0,5.218093,-12.48890365,-4.505307755,0.155622857,0.10052108720000001,0.2438491785,-44.2843629,42.488403399999996,-124.3333439,14.269428013163012,0.3279844617739807,138.65482531913275,22.62451666666667,29.806383333333244
32200,32200.0,0.05307235535,-7.723247475,0.07611923400000001,0.6310417225,0.4753349265,0.343975835,-44.029237,43.00186,-125.27725,7.732891484734233,0.8623961687912128,139.57841555898787,22.56920000000001,29.79159999999991
32300,32300.0,2.09461675,-10.40553695,1.202168265,0.446169281,-0.274180595,0.34621888599999995,-42.346191499999996,43.15414439999999,-127.819975,10.682714374699687,0.6279189176563695,141.3981138668048,22.51388333333334,29.776816666666573
32400,32400.0,1.607391345,-9.4544914,0.308714294,0.506252285,-0.085162355,-0.039987944,-41.857147999999995,42.998962,-129.663849,9.59542841527556,0.5149208318155571,142.8764015428307,22.458566666666673,29.762033333333246
32500,32500.0,2.085872555,-9.948898125,0.3106369025,0.342620085,0.263397212,0.128104399,-41.4056395,42.8507997,-131.141664,10.170485093864338,0.4514756114311706,144.04433626882945,22.40325000000001,29.74724999999991
32600,32600.0,2.42327574,-9.55679495,0.900675197,0.17122726300000002,0.29572982600000003,0.30739059150000003,-40.6446854,43.3160398,-132.307586,9.90092207137324,0.4598366492358955,145.0296325015651,22.34793333333334,29.73246666666657
32700,32700.0,2.4053840600000003,-9.15390895,0.826815045,0.14735488549999998,0.2281364465,0.290885165,-39.2805485,43.2450866,-133.09661599999998,9.50100804844257,0.3981516508852443,145.3541771834866,22.292616666666675,29.71768333333324
32800,32800.0,2.4565976000000003,-10.190139868421053,0.4007070394736842,0.2357956726315789,0.2900438836842105,0.22826024052631574,-38.258359999999996,43.5984815,-133.19946299999998,10.4898815644514,0.43871273607534095,145.28122334735468,22.23730000000001,29.70289999999991
32900,32900.0,3.35839376,-10.412951800000002,1.381739804,-0.12763671499999998,0.272128295,0.144772338,-36.9134521,43.697662,-133.64120400000002,11.032481801826403,0.3337255933422489,145.36873483496808,22.181983333333346,29.68811666666657
33000,33000.0,2.39579926,-11.4735901,-2.4669449,-0.7898010259999999,-0.368730156,-0.368040475,-36.8705764,44.63638220000001,-131.877899,11.978125144827773,0.9466015832933912,144.02655755103396,22.12666666666668,29.67333333333324
33100,33100.0,-1.63686833,-10.365549900000001,0.023866271600000002,-1.67792202,0.0242431646,-0.7242706329999999,-39.5326232,44.928436100000006,-125.934598,10.496514031265892,1.8284105996628413,139.43095280423012,22.07135000000001,29.658549999999906
33200,33200.0,2.63738411,-9.8333237,0.0199096674,-0.98208163,-0.23791809,-0.642666623,-41.39059,44.34252252631578,-120.3735347368421,10.182947671185188,1.199523057776238,134.79335438982628,22.016033333333343,29.64376666666657
33300,33300.0,1.92079618,-8.055024900000001,-1.23824008,0.0321472168,-0.583270246,-0.5755538950000001,-43.8017258,43.13888575,-117.83904979999998,8.373297175386801,0.8213847026050534,132.91210481990765,21.96071666666668,29.628983333333238
33400,33400.0,1.43321231,-8.4469616,-2.33813475,0.28025359999999994,-0.467694093,-0.18150787300000001,-44.97863870000001,42.831267499999996,-117.3178105,8.886132620687556,0.5751403341915802,132.74438075864282,21.90540000000001,29.614199999999904
33500,33500.0,2.43003537,-8.396434300000001,-1.79261624,0.212603761,-0.064599611,-0.0511230466,-44.82200615,43.022156,-117.94929669999999,8.923076447537753,0.2313909960994703,133.3115228879684,21.850083333333345,29.59941666666657
33600,33600.0,4.0893416999999985,-9.2126233,-3.09828945,0.38454895200000005,-0.481544497,0.0215286258,-44.52705375,43.21128875,-118.266144,10.545918874062073,0.617090409083706,133.554348664833,21.79476666666668,29.58463333333324
33700,33700.0,1.526704375,-8.349271,-2.01312419,0.5872573600000001,-0.026995851,0.0678695675,-44.51393135,43.3105476,-118.41896329999999,8.738496856587425,0.5960690834803867,133.71743173074992,21.73945000000001,29.569849999999903
33800,33800.0,4.91863786,-13.55786385,-5.123067445,0.0861053475,0.05610275169999999,0.16379928625999998,-43.17398025,44.25537275,-119.50164779999999,15.313914557875286,0.2960540754828904,134.54803873028854,21.684133333333346,29.55506666666657
33900,33900.0,-0.77053222,-8.181799250000001,1.323380282,0.543910199,0.3995399445,0.512239085,-43.19068950000001,44.811478,-121.06140079999999,8.388344451144334,0.8508581774061029,136.12265482471742,21.62881666666668,29.540283333333235
34000,34000.0,1.694306145,-9.88023915,0.6325866649999999,0.561804225,0.34010085,0.116820524,-41.627502,45.109559999999995,-123.213196,10.052442887997888,0.6671101615497372,137.65614041766545,21.57350000000001,29.5254999999999
34100,34100.0,2.60570986,-9.618134325,0.0197906495,0.3990837075,0.4595161425,-0.06379623549999999,-41.255188000000004,45.404053000000005,-125.94147,9.965071168548498,0.6123757203152855,140.0884450320691,21.51818333333335,29.51071666666657
34200,34200.0,2.02649766,-9.38075165,1.0665413,0.179639438,0.2393798875,0.16139755449999998,-41.352844,45.21637,-126.25275,9.658280773910024,0.34190585624677744,140.33650524873326,21.46286666666668,29.495933333333234
34300,34300.0,2.06593553,-9.357895675,0.5924903994999999,0.17808990449999998,0.273576353,0.2249992405,-40.393066,45.976257000000004,-128.2135,9.60187643170256,0.3965887867969277,142.07081885756978,21.40755000000001,29.4811499999999
34400,34400.0,2.13435061,-9.18598755,1.738772625,0.1095451375,0.28715667899999997,0.278367615,-39.518738,46.351624,-128.5675,9.58979000475842,0.4161518847049712,142.2666712789753,21.352233333333352,29.46636666666657
34500,34500.0,2.2028350800000003,-9.442699800000002,0.9823822,0.155615234,0.322091676,0.231170652,-38.156128,46.536255,-129.2511,9.746229067384098,0.4267326319492645,142.5740508808928,21.29691666666668,29.45158333333323
34600,34600.0,3.2218048,-10.2938448,1.88140868,-0.037194824,0.42904968,0.201553344,-36.8927,46.910095,-129.9347,10.950566400536086,0.4766801265502315,142.98480545249907,21.241600000000016,29.4367999999999
34700,34700.0,1.9437744,-11.5982088,-1.1484618999999998,-0.394491576,-0.095275876,-0.156799316,-36.790465999999995,47.18933,-128.82843,11.823207971688984,0.4350941959199136,142.0462446902802,21.186283333333353,29.422016666666565
34800,34800.0,0.16608276000000005,-9.7786162,-1.20903012,-1.82641908,-0.36223754799999996,-0.863284308,-39.294434,47.08252,-122.85003999999999,9.887166644562564,2.052644475758598,137.30603978315142,21.130966666666684,29.40723333333323
34900,34900.0,2.27202146,-11.6214234,-0.516381828,-1.15018922,-0.305133052,-0.6478912499999999,-41.882324,45.458984,-116.19568000000001,11.853617248385014,1.3553959263017619,131.6133896707156,21.075650000000017,29.392449999999894
35000,35000.0,1.2702941799999998,-7.907305699999998,-0.6930755679999999,0.042697144000000006,-0.301934812,-0.684741212,-44.389343,43.470764,-112.72583,8.040114993903703,0.7537602242326659,128.71376711099805,21.02033333333335,29.377666666666563
35100,35100.0,0.7647514325,-8.299774000000001,-1.52321245,0.3484230025,-0.50125122,-0.348274225,-46.244811999999996,42.915344,-113.29498000000001,8.474183704960474,0.7069634763275452,129.67675921596006,20.965016666666685,29.36288333333323
35200,35200.0,3.004825575,-8.686736999999999,-3.195259075,0.02218628,0.059879302999999995,0.13614654550000002,-46.333313000000004,42.721558,-112.01172,9.734086838646748,0.16917001077891886,128.52444447987992,20.90970000000002,29.348099999999896
35300,35300.0,5.3523407,-9.705769,-2.887004825,0.09250259375,-0.3137588525,-0.01033019999999999,-45.950317,42.912292,-112.98523,11.453893879131112,0.334195679311171,129.30026541058086,20.854383333333352,29.333316666666562
35400,35400.0,2.233898175,-6.930286375,-2.4500618000000003,0.39556885,-0.27169037,-0.175437925,-47.114563000000004,42.536926,-112.30316,7.712551638492974,0.5267060507297538,129.00066614632672,20.799066666666686,29.31853333333323
35500,35500.0,1.944499975,-13.20968275,-3.6360931000000005,0.7899856475,-0.24931717,0.80141449,-45.866394,43.960570000000004,-114.44702,13.868688500184419,1.1618218969733152,130.89835063960328,20.74375000000002,29.30374999999989
35600,35600.0,-1.703964275,-7.024261525,4.5320282,0.0916976933,0.94192124,0.13881302,-45.098877,44.62433,-115.919495,8.578638521197599,0.9877352672556022,132.14601339300802,20.688433333333357,29.28896666666656
35700,35700.0,2.809101075,-10.8023185,-0.09895324625,0.343639375,0.3682708725,0.1356201135,-44.137572999999996,45.47882,-117.72308000000001,11.176186906895788,0.5247092193674623,133.69806275189305,20.633116666666687,29.27418333333323
35800,35800.0,3.45092772,-9.885151400000002,0.024224853,0.45452424,0.234638977,0.055831910599999986,-44.14978,45.77179,-119.48395,10.470374336098557,0.529360738310489,135.35388484064651,20.577800000000018,29.25939999999989
35900,35900.0,1.74744718,-9.042749,0.920376595,0.206213377,0.235705565,0.08330688480000001,-44.542693799999995,45.77903785,-121.6803725,9.269778746375334,0.33506843186178603,137.42592638232492,20.522483333333355,29.24461666666656
36000,36000.0,2.03368075,-9.2134614,0.7441589399999999,0.15881653,0.194906618,0.401512146,-43.47007745,46.361236700000006,-122.0934328,9.46666196069857,0.4796847397598156,137.64384568057858,20.467166666666692,29.229833333333225
36100,36100.0,2.12526245,-9.622743199999999,0.272621153,0.424172975,-0.00717773435,0.37902832,-42.31391885,46.92283635,-123.4400905,9.858582111948554,0.5692935698953275,138.67115121147518,20.411850000000022,29.21504999999989
36200,36200.0,2.87811738,-9.009954800000001,0.80510102,0.166477967,0.091252136,0.234149169,-41.630935,47.5735472,-124.55222875,9.497495002005355,0.3027760223782431,139.6769266399861,20.35653333333336,29.20026666666656
36300,36300.0,2.79528041,-10.357406800000001,1.79006957,0.0192642211,0.283634958,0.0678619409,-40.69755515,47.83248925,-125.71067749999999,10.879154898761136,0.2998303546950245,140.52556573944142,20.30121666666669,29.185483333333224
36400,36400.0,2.166438315,-11.47041525,-1.71355136,-0.8635750050000001,-0.204841617,-0.49549866600000003,-42.363052,47.1288296,-124.9266055,11.80272656688833,1.0179587143807771,140.08026028090305,20.245900000000024,29.17069999999989
36500,36500.0,-1.80883484,-10.6058699,0.18002700600000004,-1.754982015,-0.282230377,-0.6247093375,-45.9210968,45.3742965,-117.1239472,10.775378454812298,1.886673610849804,133.73721176110905,20.190583333333358,29.15591666666656
36600,36600.0,1.417953495,-9.776455825,-0.3298179605,-1.002324684,-0.07950515755,-0.523894514,-48.00926195,43.16574065,-111.78016629999999,9.887492317839142,1.1374709288747216,129.08525680785326,20.13526666666669,29.141133333333226
36700,36700.0,2.004353345,-7.79944545,-1.088962555,0.15908279150000001,-0.2429756135,-0.619436675,-50.6430057,40.66192585,-110.5516835,8.130273565409517,0.6854948980142972,128.217799378998,20.079950000000025,29.126349999999892
36800,36800.0,0.8587852375,-8.2350058,-2.077822105,-0.01941146834,-0.4072402935,-0.2129318315,-52.0629136,39.524840000000005,-109.8366545,8.541000075989503,0.4620473239240607,127.81569493254514,20.02463333333336,29.111566666666555
36900,36900.0,3.02931293,-8.2989289,-2.425468455,0.22001571600000003,0.0691963176,0.264296725,-51.98150645000001,39.9127967,-109.5442175,9.162810248285503,0.35308100812088955,127.65205938116915,19.969316666666693,29.09678333333322
37000,37000.0,4.74235705,-9.25619135,-3.37081758,0.392155456,-0.2054756135,-0.054958342600000015,-51.69967685,40.64147925,-109.9360645,10.936443450520867,0.45023928796577495,128.10365456340688,19.914000000000023,29.08199999999989
37100,37100.0,-0.35633545,-9.1429502,-1.2863678,0.551470964,0.391970828,0.32534179999999996,-52.8481304,40.59967085,-111.94305449999999,9.240148784911613,0.7730872523756271,130.27861571964345,19.85868333333336,29.067216666666557
37200,37200.0,2.59332884,-8.74815368,0.035000640000000034,0.29580383,0.975100698,0.08501587120000001,-51.71577429999999,41.91802965,-113.9517225,9.237525416809136,1.0242563921327714,131.97212721674322,19.80336666666669,29.05243333333322
37300,37300.0,2.46571348,-9.816678,-0.04018249799999996,0.449417116,0.43735656799999995,0.494723528,-51.5267947,42.79869035,-117.303922,10.150304205246195,0.8024156232314159,135.08132465814893,19.748050000000028,29.03764999999989
37400,37400.0,2.5121643,-9.872701800000002,1.23353576,0.6175170839999999,-0.172186282,0.277832034,-50.5928042,43.91029365,-119.2868838,10.265995017844869,0.7043167383499871,136.8104991733914,19.692733333333358,29.022866666666552
37500,37500.0,1.176437364,-9.300967800000002,0.42428894,0.267898552,0.2360199,-0.17320556399999998,-51.16653415,43.644714,-121.64794850000001,9.399322411615893,0.3985628049454206,139.00040451838532,19.63741666666669,29.008083333333214
37600,37600.0,2.31463932,-9.2640962,1.36808778,0.21228943,0.40326537799999995,0.152133178,-51.0942839,43.56262279999999,-123.7133025,9.64650754745972,0.482394062566621,140.7597626677613,19.582100000000032,28.993299999999884
37700,37700.0,2.14465332,-9.879406800000002,-0.054064940000000006,0.1349517832,0.460583494,0.266748048,-50.75119030000001,43.955995,-126.27700800000001,10.125464876170758,0.554039460144626,143.01657564404746,19.526783333333363,28.97851666666655
37800,37800.0,3.0956902000000004,-9.7361777,1.49690015,-0.03266754175,0.11457977225,0.10429687275,-49.74823,44.41873610526316,-126.45199410526315,10.335468409585514,0.16512755123552794,142.96159763360467,19.471466666666696,28.963733333333217
37900,37900.0,3.25999224,-9.76520455,0.731767287,-0.19676819,0.15511321949999998,0.15782928300000001,-49.734344,44.484101,-127.21191699999999,10.325841326750037,0.30181939085681786,143.64961962012669,19.41615000000003,28.948949999999886
38000,38000.0,4.31762467,-11.99815655,-1.91507873,-0.7515151999999999,-0.5475875855,-0.302311706,-49.7109982,43.9363096,-125.590212,12.901289260749536,0.98260845378428,142.03715801130957,19.360833333333364,28.93416666666655
38100,38100.0,-1.437432095,-10.2859445,0.3898162839999999,-1.670721455,0.026694490999999987,-0.6414939885000001,-52.548065,41.808625000000006,-120.2249149,10.403096563479854,1.797942145378414,137.70756155474612,19.305516666666698,28.91938333333321
38200,38200.0,2.780610635,-10.03886165,-0.280202491,-0.951454175,-0.012502288575,-0.622005465,-54.185792000000006,39.392700399999995,-115.6543,10.426242349190174,1.1392683207981404,133.65577315444105,19.25020000000003,28.90459999999988
38300,38300.0,1.68233645,-7.51770566,-0.7344306934999999,0.0397148129,-0.62700576,-0.689803323,-56.19415279999999,36.5968326,-114.541932,7.741570912836477,0.9362578486318788,132.7290047134889,19.194883333333365,28.88981666666655
38400,38400.0,1.9307251,-8.064842,-2.54763035,0.20941162,-0.36329651,0.010452270500000005,-56.76498420000001,35.964812200000004,-114.43039099999999,8.689948931715161,0.4221701065049098,132.7028534196673,19.1395666666667,28.87503333333321
38500,38500.0,3.6371994,-8.5400925,-2.3321533,0.26427459999999997,0.013801575000000005,0.1297607425,-56.6539,36.0906979,-115.2182004,9.57202931896964,0.3018326711017485,133.36956398738536,19.084250000000036,28.86024999999988
38600,38600.0,5.0497742,-9.0416715,-3.69564815,0.47839355,-0.59552765,0.0184402465,-55.800323,36.645813399999994,-115.5586244,10.998944182907634,0.7649957995389035,133.4555762602449,19.028933333333367,28.845466666666546
38700,38700.0,-1.91795355,-9.1536025,-0.3515396249,0.7164764349999999,0.33231354,0.618713375,-55.6085205,37.3526005,-117.14447,9.364420647637708,1.0205240863272886,134.94581925697634,18.973616666666697,28.830683333333212
38800,38800.0,3.2493363,-8.6645888,2.359291085,0.07572174000000001,1.6585693,0.1553268415,-53.590240599999994,38.856812,-119.4564805,9.925780701214006,1.6750324458921533,136.5709537049616,18.918300000000034,28.815899999999882
38900,38900.0,4.0178755499999985,-10.44707475,1.1831436000000002,0.59291078,-0.196052545,0.405662535,-53.056488,39.9052435,-123.978274,11.2776538492263,0.7861318094752716,140.63452471584878,18.862983333333368,28.801116666666545
39000,39000.0,1.80317457,-9.8961684,1.43147886,0.503740697,0.18765258575,0.086984251,-52.46490550000001,40.1579282,-126.138461,10.171196155655325,0.5562712371455774,142.3943071155088,18.807666666666698,28.78633333333321
39100,39100.0,1.2510803,-9.2364393,0.6977790775,0.157164764,0.2953063885,0.00826644885,-52.2315982,39.7126778,-128.526915,9.348460048906574,0.33960963360047675,144.30669246798743,18.752350000000035,28.77154999999988
39200,39200.0,1.748107895,-9.27127685,0.656711585,0.27849578750000004,0.28560256900000003,0.278418729,-51.5866095,39.998323,-129.702148,9.458210110409857,0.4876665063570651,145.20226485055332,18.69703333333337,28.756766666666547
39300,39300.0,2.864530145,-9.0787829,0.4132804760000001,0.18304748899999998,0.2891197225,0.3604385375,-49.881592,40.4225153,-131.628878,9.534424168555867,0.4983198354944327,146.45253601770614,18.641716666666703,28.74198333333321
39400,39400.0,1.93779375,-9.648185699999999,1.288656585,0.164405057,0.1909004225,0.16565780800000002,-49.045410499999996,41.0307314,-133.42239700000002,9.925012404303127,0.30242177978981505,147.95445813070057,18.586400000000037,28.72719999999988
39500,39500.0,2.747866075,-10.2667883,2.1773941000000003,-0.10612030075,0.2803863555,0.17449951,-47.89966784210525,40.94607768421052,-134.8733189473684,10.850654928721633,0.35457665719655795,148.868315391491,18.53108333333337,28.71241666666654
39600,39600.0,3.79341659,-11.969132199999999,-1.572106915,-0.63715286,-0.466197207,-0.17533493,-47.9053497,41.26068145,-134.3472245,12.66736880526326,0.8144012516760092,148.48085487119312,18.475766666666704,28.69763333333321
39700,39700.0,-0.6237222547368421,-9.41971205263158,0.0972739789473684,-1.6588680789473684,-0.5090677363157895,-0.8650873936842105,-50.0138859,40.910951,-129.5064535,9.483734608384667,1.9389181885833382,144.73128259996452,18.420450000000038,28.682849999999878
39800,39800.0,1.76828004,-11.198849599999999,-0.88844298,-1.14719544,-0.0688598634,-0.8087371799999999,-52.12944075,40.1170349,-124.78324599999999,11.373738147482634,1.4084850272975116,141.05945723174798,18.36513333333337,28.66806666666654
39900,39900.0,1.98471986,-7.5649353600000016,-1.092666632,-0.293069456,-0.582952878,-0.572674558,-54.029999,38.028031,-123.02009550000001,7.900489184511199,0.8725169382742748,139.63998915564878,18.309816666666702,28.65328333333321
40000,40000.0,0.9291138000000001,-7.213226319999999,-1.35627136,0.192904662,-0.3411438,-0.06540527480000001,-54.89975,37.3234558,-122.20398200000001,7.4161801254632485,0.40198419393282336,139.07134905180138,18.25450000000004,28.638499999999876
40100,40100.0,3.56513672,-8.659799399999999,-2.64124142,0.551892084,-0.195837402,0.206665042,-54.31846655,37.66120935,-123.38638610000001,9.730563041181485,0.6217552922775578,139.97524178358142,18.19918333333337,28.623716666666542
40200,40200.0,4.80125732,-9.476465,-4.19388422,0.405960086,-0.356478884,-0.1806579616,-53.87702845000001,37.6892075,-123.9096845,11.428690957688373,0.5793292852221533,140.27419851495623,18.143866666666707,28.6089333333332
40300,40300.0,-0.5856933413800001,-10.7439575,-2.110687228,0.61539002,-0.11019287200000004,0.77190246,-52.99964920000001,37.82325725000001,-126.515653,11.08814756431916,1.013387171663208,142.2878899766504,18.088550000000037,28.59414999999987
40400,40400.0,-0.9496124160000002,-7.586480639999999,3.68519594,0.20718078680000004,1.22799682,-0.012988281200000002,-51.1620334,39.193495500000004,-128.244854,8.60205478051568,1.2571730880443155,143.52877436528254,18.03323333333337,28.579366666666537
40500,40500.0,3.693969685714285,-11.020481571428574,0.20057460428571428,0.4750453357142857,0.07786778185714284,0.2621612557142857,-49.9787131,39.430694900000006,-131.0370605,11.633860318555962,0.5617381627072751,145.68252917759673,17.977916666666708,28.5645833333332
40600,40600.0,2.49264907,-9.54930625,-0.10393066299999998,0.4756187385,0.21535645,0.07676773175,-49.04518005,38.99238585,-133.7664015,9.875636382737328,0.5290026459372974,147.71359151241074,17.922600000000042,28.54979999999987
40700,40700.0,1.82359315,-9.4546735,0.511566175,0.21633911,0.36694336,0.12336731,-48.00941470000001,38.7623581,-135.729523,9.645654899180926,0.4445120196054275,149.0970698806528,17.867283333333376,28.535016666666536
40800,40800.0,2.2713012999999997,-9.414566,0.631874075,0.32978821,0.28012085,0.35772705,-46.4018242,38.8706966,-137.8302775,9.712677253667582,0.5622876796716354,150.53664260201074,17.81196666666671,28.520233333333202
40900,40900.0,2.16787641,-9.34149175,1.033798995,0.17926712,0.2259559645,0.29524688600000004,-44.892578,39.43008415,-138.8851195,9.64661171699529,0.41310231704708816,151.19252195372582,17.756650000000047,28.505449999999872
41000,41000.0,2.47373733,-8.9887594,1.32409671,-0.02596282975,0.352455901,0.1831825275,-43.457412700000006,39.4300079,-139.749681,9.41949262909484,0.3980741973760461,151.5694019811942,17.701333333333377,28.49066666666653
41100,41100.0,3.433213085,-10.7610095,1.59913256,-0.11437530550000001,-0.202923584,0.1551658625,-42.0824429,39.78752120000001,-139.8717465,11.40851124574641,0.2843352211644758,151.3872060191789,17.64601666666671,28.4758833333332
41200,41200.0,1.334397125,-11.0218017,-3.060641485,-1.13889085,-0.386093133,-0.5761878995,-42.562866,40.255736999999996,-138.0661,11.519155867442851,1.339274823495774,149.98123180170617,17.590700000000044,28.46109999999987
41300,41300.0,0.045240020999999915,-10.4218164,0.610147856,-1.6420715,-0.09085693550000001,-0.5586677615,-44.328307200000005,41.241150399999995,-131.431276,10.463640510251382,1.7370454163310274,144.70696963547468,17.535383333333378,28.446316666666533
41400,41400.0,1.6571884,-9.86289225,-0.090576165,-0.6641082899999999,-0.32015991,-0.7837066500000001,-46.117553799999996,41.1746208,-126.94213799999999,10.019659479315564,1.0913355115244037,141.19688361988818,17.480066666666712,28.431533333333203
41500,41500.0,1.58117675,-7.93196105,-1.53967285,0.277053835,-0.519355785,-0.6196518,-48.169556,39.343263,-125.531314,8.23882139007114,0.8558935635338791,140.09401940658242,17.424750000000046,28.416749999999862
41600,41600.0,1.86668395,-8.4592895,-2.36985785,0.050689696500000006,-0.5539779650000001,-0.24734497,-49.29092395,38.56361405,-125.43228375,8.982670992234844,0.6088753800743871,140.178532042486,17.36943333333338,28.40196666666653
41700,41700.0,2.7657089,-8.477241750000001,-2.13043975,0.262138365,-0.091651915,0.0914077735,-49.4970713,38.6319731,-125.53909325,9.170653920329864,0.3000650746663587,140.36543175927306,17.314116666666713,28.3871833333332
41800,41800.0,4.198639,-8.9955905,-3.4514388999999994,0.323928835,-0.17687988,0.0461349485,-48.96247805,38.74229455,-126.6017925,10.512952113119756,0.38357964541268735,141.16063296043086,17.258800000000047,28.37239999999986
41900,41900.0,-0.4281616349999999,-8.604133500000001,-0.70828247,0.621131885,0.37173462,0.47863005,-48.6255645,38.88145460000001,-127.35679625,8.664291460018804,0.8751446617723244,141.76087805088306,17.20348333333338,28.35761666666653
42000,42000.0,4.8480682,-9.362503,0.06624604999999995,0.38305665,0.8500442500000001,0.275695805,-45.914155,40.0192244,-129.26727300000002,10.714837081989966,1.0031692116442084,142.89775276276717,17.148166666666715,28.3428333333332
42100,42100.0,1.5105514700000002,-10.0616,0.5115661499999999,0.45069886,0.24283600000000002,0.38435364,-44.73014825,39.75631725,-132.4778745,10.244761379329749,0.6405606273955365,145.3676941322926,17.092850000000052,28.328049999999863
42200,42200.0,2.083052042105263,-9.856022526315789,1.2298592210526316,0.5853696999999999,0.16232942126315789,0.15565811684210526,-43.404006700000004,39.88876355,-134.38720700000002,10.148904456687363,0.6332136412868147,146.747999549523,17.037533333333382,28.313266666666532
42300,42300.0,1.110652935,-9.19166965,0.5316139089999999,0.21154403649999998,0.4681404065,-0.1589820885,-43.41316255,39.14688155,-136.690368,9.276315399802996,0.5417306131505162,148.66555326704886,16.982216666666716,28.298483333333195
42400,42400.0,1.885060905,-9.5946753,0.9237251125,0.3035263055,0.278103625,0.23170013350000002,-42.4555972,39.08882005,-137.675778,9.823601571131237,0.4726503365291192,149.2817332335561,16.92690000000005,28.28369999999986
42500,42500.0,2.42813029,-9.58018715,0.827362045,0.185391239,0.207788845,0.4300018365,-40.8865356,38.923645,-139.04311900000002,9.918813193578911,0.5124567110470477,150.0658156273545,16.871583333333383,28.26891666666653
42600,42600.0,2.3890373150000004,-9.649984075,1.291472635,0.129567716,0.272022247,0.19175186149999998,-39.597778000000005,39.0530398,-139.945984,10.027299177867338,0.35814968613380244,150.5922192430313,16.816266666666714,28.254133333333197
42700,42700.0,2.347919425,-10.07531335,1.249157705,0.06437225285,0.384947211,0.25780411,-38.2711792,39.0655512,-140.27344,10.420988293118398,0.4679246932654113,150.55727078281708,16.76095000000005,28.239349999999863
42800,42800.0,3.02918551,-12.4712522,-0.2901931635,-0.23273011149999998,-0.22747268350000002,-0.06374587949999999,-37.3345946,39.266969200000005,-140.14587600000002,12.858475660330972,0.3380036550862498,150.2552497956646,16.705633333333385,28.224566666666533
42900,42900.0,0.7831901299999999,-9.2312972,-1.22405777,-1.63323287,-0.36372451,-0.751528917,-39.1708372,40.131531,-135.96435799999998,9.354111694363516,1.8342934402991289,147.07643111017282,16.65031666666672,28.209783333333192
43000,43000.0,0.562381734,-11.63914525,-0.7566436620000001,-1.28702242,0.080229186,-0.70445022,-41.48895260000001,40.841368,-130.614928,11.687456320776185,1.4695338156792301,143.00287499640115,16.595000000000052,28.194999999999858
43100,43100.0,1.340798905,-8.97978535,-0.4058921775,-0.2797523435,0.2685600275,-0.78994292,-43.8687132,39.971922799999994,-127.78076000000001,9.09141373622612,0.8848756042074317,140.8907227395852,16.539683333333386,28.18021666666652
43200,43200.0,0.068215942,-7.00175784,-1.2977348,0.28590393199999997,-0.5466301020000001,-0.463756575,-46.1831664,38.60138,-127.39227279999999,7.13180559243833,0.7845992711930423,140.8964775543181,16.48436666666672,28.16543333333319
43300,43300.0,3.791027805,-8.5550505,-2.40302042,0.1793212925,-0.21623000600000006,0.10759659,-46.39435,38.186036,-127.312924,9.668190643162102,0.30556825334432497,140.78068908490116,16.429050000000053,28.150649999999857
43400,43400.0,4.2278504,-9.774777199999999,-3.1694031000000003,0.5514679,-0.734439072,0.40651855600000003,-45.88661175,38.07792675,-128.30695749999998,11.119787364018114,1.0075240844734734,141.48571302086162,16.373733333333387,28.135866666666523
43500,43500.0,1.5774627840000002,-7.09757996,-1.8183472,0.30560913,-0.034341433999999976,-0.07583618238,-46.27303925,37.62969925,-128.0857125,7.566199000444906,0.3766652321446818,141.2910041991842,16.31841666666672,28.121083333333193
43600,43600.0,4.4667876,-14.8389956,-5.73334644,0.26747131,-0.14236144559999994,0.605294792,-44.382477,38.40599,-129.63485749999998,16.602899470517553,0.6995523443454272,142.3027129313653,16.263100000000055,28.10629999999985
43700,43700.0,-2.48429566,-8.010970799999999,0.5282043279999997,0.73256834,0.0022979779999999783,0.386700444,-43.31970325,38.2198345,-131.8161025,8.673247025772454,0.9136894485597696,143.91973704707397,16.20778333333339,28.091516666666518
43800,43800.0,0.358578492,-9.0953062,0.828677344,0.57468872,0.234533692,0.0620117188,-42.159653000000006,38.43383825,-133.5708575,9.15598902559171,0.6327571950462333,145.24418433820102,16.152466666666722,28.07673333333319
43900,43900.0,1.49509886,-9.307675,0.6864593400000001,0.287710578,0.313143922,0.0473083508,-42.068863,37.75520325,-135.51178000000002,9.452658074199718,0.4295613795874398,146.82884427878992,16.097150000000056,28.061949999999854
44000,44000.0,1.8152069,-9.761136,0.248089598,0.253192142,0.226220704,0.125289918,-41.21932975,37.51831,-136.6477975,9.93199689971212,0.3629894072304856,147.57827578669568,16.04183333333339,28.047166666666516
44100,44100.0,2.653300465,-8.80896125,1.57656328,0.15455322100000002,0.006929779100000004,0.13652114850000002,-40.59143075,37.56752125,-137.784955,9.335252301003482,0.21604374669915036,148.47115872638338,15.986516666666725,28.032383333333183
44200,44200.0,1.68574749,-9.479216099999999,1.3612122,0.06815643310000001,0.1959098775,0.304245753,-39.83612075,37.35046375,-138.1607025,9.726425438016754,0.3706361120121121,148.56106507372982,15.931200000000056,28.017599999999852
44300,44300.0,3.157816275,-10.04628195,1.0312332055,0.0008354188000000012,0.41786194299999996,0.2203598025,-38.5211945,37.393571,-138.83934,10.588681310482848,0.4742426916137156,148.8574177189808,15.875883333333393,28.00281666666652
44400,44400.0,3.62911528,-11.88335635,0.5891967810000001,-0.2188255305,-0.338744355,-0.0025512695000000085,-38.2522585,37.6499175,-138.4155275,12.443833535014011,0.40502636034173306,148.45765636545337,15.820566666666725,27.98803333333318
44500,44500.0,1.539633125,-10.014194900000001,-1.55019913,-1.620018795,-0.5883880450000001,-0.8056450000000001,-40.066146999999994,38.521195500000005,-134.59243500000002,10.266516172502463,1.9025818662927432,145.61757304029925,15.76525000000006,27.97324999999985
44600,44600.0,0.62427903155,-10.95338505,0.28860321375000003,-1.431781795,-0.04360885595,-0.668279279,-43.0603025,38.98468,-128.37219,10.988625049284133,1.5807693779967358,140.90277503907117,15.709933333333392,27.958466666666517
44700,44700.0,1.092166125,-8.406730300000001,-0.33012389400000003,-0.14478606789999998,0.0616394059,-0.73279114,-44.94438225,38.2492065,-125.54740875,8.489737773873253,0.7606989555847028,138.72709167256434,15.654616666666724,27.943683333333183
44800,44800.0,0.7809097199999999,-7.991936000000001,-1.000376865,0.55391846,-0.434461969,-0.315098573,-46.9402315,37.36076375,-125.38757375,8.096575994928406,0.7771278060965536,139.00098386427527,15.59930000000006,27.928899999999853
44900,44900.0,3.21354676,-8.393448,-3.21680748,0.21463623,0.00890197699999995,-0.208044433,-47.40448,37.05863975,-125.88539250000001,9.546782958645396,0.34715885687314896,139.52655591681804,15.543983333333394,27.914116666666516
45000,45000.0,3.32894744,-8.839718699999999,-2.2113571000000003,0.291758729,-0.69906921,0.171304321,-47.33067589473684,37.035812105263155,-125.92074973684211,9.725395041555768,0.7771224320207148,139.527378954574,15.488666666666727,27.899333333333182
45100,45100.0,3.01410368,-8.9892425,-2.72001047,0.457618714,-0.294158933,-0.0353530893,-47.7488719,37.4295049,-125.88363600000001,9.869190203572764,0.5477925401829175,139.74125839702506,15.43335000000006,27.88454999999985
45200,45200.0,1.6860489099999998,-10.9556019,-1.80853425,0.6253951999999999,-0.051387023600000005,0.667718505,-47.0964061,37.991332899999996,-127.3988332,11.237106910272004,0.919169504766704,141.03884466380492,15.378033333333395,27.869766666666518
45300,45300.0,0.3420532249999999,-7.72558755,2.15506746,0.291972351,0.98703157,-0.22465667600000003,-46.4414979,38.3139035,-128.478701,8.19409661906499,1.0540636327766546,141.885791102385,15.322716666666727,27.854983333333177
45400,45400.0,3.3430061,-11.8363075,1.086170225,0.462146755,-0.13106917975,0.494876865,-45.6040957,38.71429420000001,-130.171661,12.355881731239748,0.6931866460561236,143.25923327737257,15.267400000000062,27.840199999999854
45500,45500.0,1.4581718499999998,-9.85331725,0.7737350500000001,0.64084245,0.2175369275,0.08874130250000001,-44.8056033,38.8507071,-132.080231,10.00475909578966,0.6825635834006705,144.78319848038024,15.212083333333394,27.825416666666516
45600,45600.0,1.2633438,-8.906997625,1.4450073250000002,0.11327743625,0.48012924,0.02243042000000001,-44.491119399999995,38.6662294,-133.713224,9.111873115634726,0.4949187942926078,146.12935096911949,15.15676666666673,27.81063333333318
45700,45700.0,1.888835925,-9.321800375,0.97034835,0.3036918675,0.3951721175,0.2775688075,-43.7303164,38.858032200000004,-135.33492900000002,9.56076628006567,0.5713575123383632,147.43781867057763,15.101450000000064,27.79584999999984
45800,45800.0,2.452671075,-9.242484875,1.157402025,0.127658845,0.340579985,0.38195419,-42.478486,38.969421600000004,-136.523595,9.6325888986265,0.5281859220774694,148.19579902218308,15.0461333333334,27.78106666666651
45900,45900.0,1.8987082999999998,-9.7018735,1.10652925,0.13111496,0.2462997325,0.1963424675,-41.020049,39.645538,-137.093503,9.948642732374891,0.34275282265079804,148.4892132434198,14.990816666666731,27.766283333333178
46000,46000.0,3.6309783,-10.3568114,1.21485596,-0.140310672,0.232827758,0.0686157224,-40.4104614,40.19165039999999,-137.379606,11.042000157410374,0.2832485252882936,148.7332574538679,14.935500000000065,27.751499999999844
46100,46100.0,2.72811586,-11.7962094,-0.91573182,-0.72919004,-0.6443145739999999,-0.292510988,-41.294556899999996,40.3752141,-134.77295099999998,12.148410269550126,1.0180277296364233,146.6262796914273,14.880183333333399,27.736716666666513
46200,46200.0,-0.25888976539999997,-9.432412800000002,0.42142334,-1.66108398,-0.019223021599999997,-0.5948394659999999,-43.40804979999999,40.8218386,-129.96688899999998,9.46830740338608,1.767652241847636,142.9768040044565,14.824866666666733,27.721933333333176
46300,46300.0,0.5194671639999999,-11.2484162,-0.71510924,-1.04877318,0.192340086,-0.8027709959999999,-45.954436799999996,39.7480778,-125.5757148,11.287387767797744,1.3356087988655445,139.50286453735686,14.769550000000065,27.70714999999984
46400,46400.0,2.40010672,-7.57379152,-0.08543396,-0.256643676,-0.299163816,-0.64639586,-48.1239321,38.6433405,-123.58658,7.946406950775641,0.767002643018953,138.14128344476106,14.7142333333334,27.692366666666512
46500,46500.0,0.8920013139999999,-6.910830720000001,-1.73168028,0.132604978,-0.5296966320000001,-0.015112305600000013,-49.102936,37.6824955,-123.312227,7.189893650809096,0.5495499353254515,137.97458260411165,14.658916666666734,27.67758333333317
46600,46600.0,2.847586075,-7.99612525,-2.341720605,0.523986811,-0.049203490550000006,0.1266654955,-48.587798799999995,38.181304499999996,-123.32412749999999,8.808220658797502,0.5447829744935587,137.9399676324343,14.60360000000007,27.662799999999837
46700,46700.0,6.93683105,-11.7611884,-5.24709018,0.24057311899999997,-0.611611176,0.05263137795,-47.967377,38.3978282,-123.93738,14.632620183438773,0.6685564840621158,138.33199920370132,14.5482833333334,27.648016666666514
46800,46800.0,-1.82020492,-10.02215995,0.987949375,0.6799919154999999,0.036237335500000016,0.6258583120000001,-47.810058000000005,37.99766575,-125.79933100000001,10.236418792504644,0.9541284776504728,139.83986727276826,14.492966666666733,27.633233333333173
46900,46900.0,0.5799820012999999,-7.487596145,2.5784195025,0.1473670935,1.60110624,-0.10608901875,-46.48719815,38.6247249,-126.913531,8.146683856641049,1.6129409181633236,140.57035314747634,14.437650000000069,27.61844999999984
47000,47000.0,6.04503878,-12.23895775,0.674729155,0.51147082,-0.4749870325,0.5326377649999999,-44.78523225,38.942184399999995,-129.3083935,13.679997129591108,0.8799986828008366,142.27750436358852,14.382333333333404,27.603666666666502
47100,47100.0,1.4213638199999998,-9.85139605,0.4896019040000002,0.591204835,-0.032207488999999985,0.011083984499999998,-44.50569165,38.311232700000005,-131.5278675,9.98298199424115,0.5943153138326357,144.04211002045162,14.327016666666735,27.588883333333172
47200,47200.0,1.03649675,-9.24805515,1.032011394,0.185497283,0.2606307965,0.06621475236,-44.17846685,38.382492299999996,-133.134001,9.364033236247296,0.32862161862382805,145.42913133658203,14.271700000000068,27.574099999999838
47300,47300.0,1.84716794,-9.407271000000001,0.202357482,0.350350955,0.263926699,0.384246831,-42.88192875,38.1922914,-134.667509,9.589331554888133,0.5834079345028658,146.39982925196273,14.216383333333404,27.559316666666504
47400,47400.0,3.137291,-9.5157226,0.698666377,0.10320587159999997,0.297056576,0.44017334,-41.0132599,38.79272555,-135.8540305,10.044781459172464,0.5412571541324068,147.11663957721632,14.16106666666674,27.544533333333174
47500,47500.0,2.22629243,-9.678419300000002,1.25101933,0.16829986800000002,0.180944822,0.158740237,-39.809418,39.0402989,-136.845173,10.01102505588505,0.2943712690616671,147.768695128782,14.105750000000072,27.529749999999837
47600,47600.0,3.11513976,-10.669858,1.112269634,-0.1291320782,0.14430084199999998,0.07926483150000001,-39.06333955,38.9426422,-137.231979,11.171268531168382,0.2138146127560072,147.90246574648899,14.050433333333403,27.514966666666503
47700,47700.0,2.51994935,-11.2265028,-1.78399357,-1.03342442,-0.6086212120000001,-0.676214602,-40.17463675,39.34593225,-134.70382450000002,11.651343278731876,1.3782485302781378,145.97069096901325,13.99511666666674,27.500183333333172
47800,47800.0,-1.48209071,-10.6783584,0.32960662399999996,-1.70508117,0.07985382199999994,-0.624131778,-42.79983445,39.68200655,-128.94714549999998,10.788848558441945,1.8206245555891007,141.5410514260973,13.939800000000071,27.48539999999984
47900,47900.0,2.22809604,-9.83618775,-0.020185852499999823,-0.86640012,0.1563400264,-0.6168823210000001,-44.37240625,39.1316226,-124.58030900000001,10.090351716726676,1.0770824439864566,137.91487151900571,13.884483333333408,27.470616666666498
48000,48000.0,1.6541404599999998,-7.56109673,-1.305154388,0.02522354140000001,-0.4333396975,-0.4584281975,-46.28021215,37.93731595000001,-123.873979,7.850528581502099,0.6319319714998042,137.57144750227536,13.829166666666742,27.455833333333175
48100,48100.0,2.63749774,-8.360278650000001,-2.678890205,0.0383277889,-0.0160186765,0.10510101564999999,-46.5039827,37.9507447,-124.4892135,9.171269627730664,0.11350850499431925,138.20449279721606,13.773850000000074,27.441049999999837
48200,48200.0,2.85100175,-7.93956755,-1.88784868,0.381193544,-0.0878150963,0.2683013925,-46.18446375,38.36059555,-125.41763275,8.64498073185105,0.475188623947141,139.04725646410466,13.71853333333341,27.4262666666665
48300,48300.0,4.491206200000001,-9.77154735,-4.262771635,0.2943679825,-0.407456215,-0.04164886480000002,-45.2217106,38.4758758,-125.98289525,11.568484277132736,0.5057677938851809,139.2736062001041,13.663216666666742,27.411483333333173
48400,48400.0,0.486009982,-12.4549654,-1.5990455469999998,0.57016448,-0.12659912399999995,0.6750129684999999,-44.3116761,38.3058936,-128.45558300000002,12.573493178870555,0.90468894854517,141.1799860271235,13.607900000000074,27.39669999999983
48500,48500.0,-1.657946,-6.98319635,2.887509185,0.235516363,1.23880992,-0.04184951745,-43.3471675,38.32962020000001,-129.72129950000001,7.770547522164469,1.2617219768770382,142.04154148302314,13.552583333333411,27.3819166666665
48600,48600.0,3.6360016,-10.480591,0.57681274,0.531662,0.32699585,0.1776886,-42.007752,38.4063722,-131.85272,11.108375591485457,0.6489714991670917,143.61377627413066,13.497266666666743,27.367133333333165
48700,48700.0,2.2234192000000004,-10.332153,1.2507781999999998,0.60409546,0.100097656,0.124435425,-41.4300532,38.2211304,-133.45946999999998,10.642435090707997,0.6248480139395792,144.87515297650106,13.441950000000073,27.352349999999827
48800,48800.0,1.1460266000000001,-8.792679,1.2220459,0.17904663,0.39730835,-0.04600525,-41.0266118,37.6010136,-135.276486,8.950864603302596,0.43821011366882207,146.2764196471276,13.38663333333341,27.337566666666497
48900,48900.0,2.0223082999999997,-9.312225,0.73960876,0.3367157,0.34403992,0.23841858,-40.1568604,37.7911372,-136.58264,9.5579436297115,0.5372004732586456,147.2942797859372,13.331316666666744,27.322783333333163
49000,49000.0,2.6280365000000003,-9.463058,0.8928375,0.08956909,0.35362244,0.35559082,-38.4817508,37.5402834,-137.807614,9.861703775621256,0.5094274072164297,147.92270422274345,13.276000000000078,27.30799999999983
49100,49100.0,1.8379517,-9.759933,1.4818115,0.03630066,0.2875824,0.09460449,-37.217102000000004,37.85675000000001,-138.204346,10.041420414341497,0.30491209263385355,148.05008123828614,13.220683333333412,27.29321666666649
49200,49200.0,3.55334011,-9.4904723,1.660415615,-0.221111299,0.39644851299999995,0.106160739,-36.0876466,38.1918336,-138.500978,10.269452612044914,0.4667703513662364,148.13325910546342,13.165366666666744,27.278433333333158
49300,49300.0,3.7604324,-12.226330599999999,0.02602386650000001,-0.2314949005,-0.86769411,-0.0398323059,-35.5194094,38.545532,-137.85584,12.796821717975392,0.9002159564553205,147.48452625015733,13.110050000000081,27.263649999999828
49400,49400.0,-1.101227595,-9.6700276,-0.806689427,-1.7364036500000002,-0.37133789674999995,-0.6476242075,-37.5717168,39.656066,-133.577576,9.767619889821091,1.8910971036134996,144.31672252806024,13.054733333333411,27.248866666666487
49500,49500.0,1.63096997,-11.75951315,-0.43833617799999997,-1.33490369,0.08960571395,-0.561708835,-39.3527218,41.1068724,-129.18609800000002,11.880210145205758,1.4512260626434992,141.16492976792918,12.999416666666749,27.23408333333316
49600,49600.0,1.87159961,-7.91370147,0.2659156845,-0.24998779399999999,-0.28500670899999997,-0.683724985,-41.1712652,41.047973799999994,-126.291198,8.138467775056379,0.7841449017771082,139.03068754352987,12.94410000000008,27.219299999999823
49700,49700.0,0.282494356,-7.650643274999998,-1.760349295,0.365480043,-0.5384819024999999,-0.322446451,-42.982483,40.828247600000005,-125.5297856,7.856649710064072,0.7265713801589818,138.82424737844107,12.888783333333414,27.20451666666649
49800,49800.0,2.96094816,-8.272544900000002,-2.66111149,0.30646209399999996,-0.130751035,-0.025988769900000003,-43.5897836,40.7022096,-126.11511100000001,9.180919140527267,0.3349109202626957,139.5054244494451,12.833466666666748,27.18973333333316
49900,49900.0,4.46296383,-10.165991199999999,-3.28491975,0.49905394700000005,-0.43743896600000004,0.23053742,-42.893982,41.2310796,-126.78619599999999,11.580209807241907,0.7032576276552147,140.05232831842386,12.778150000000082,27.174949999999825
50000,50000.0,-0.331077573,-7.66548925,-0.06172485,0.392216493,0.6129165639999999,0.09172668449999999,-42.8842158,41.538999999999994,-128.00598159999998,7.696145156798015,0.7435662744553233,141.24486380050618,12.722833333333414,27.160166666666488
50100,50100.0,5.48575593,-11.639022500000001,-2.3952392174,0.33852843,0.7347763070000001,0.31233978199999995,-41.0427848,42.350158,-129.64264,13.106833875443812,0.8780491269627791,142.42655390226884,12.667516666666751,27.145383333333157
50200,50200.0,1.84430393,-8.09584663,0.0840759294,0.64829558,-0.040948486400000005,0.431765749,-39.8904408,42.753296,-132.652284,8.32802255219107,0.7822942640181743,144.9687515857305,12.612200000000087,27.130599999999824
50300,50300.0,0.92265165,-9.1257176,1.60259704,0.47253265200000005,0.31730499500000003,0.0544464114,-39.1998292,42.796935999999995,-134.71618800000002,9.313166079576273,0.5723576365297497,146.6855989736324,12.556883333333413,27.11581666666649
50400,50400.0,0.9954406729999999,-9.1295422,0.668266295,0.280035403,0.457058717,-0.0726394662,-38.83514520000001,42.5164792,-136.09222200000002,9.213631104270767,0.5416301798215009,147.77328785045518,12.50156666666675,27.10103333333316
50500,50500.0,2.54879915,-9.557034199999999,0.6888504040000001,0.22592926300000002,0.39196777,0.15543670199999998,-38.0456535,42.5075537,-137.2793605,9.91554886151485,0.4785661717416262,148.66080770079196,12.446250000000086,27.086249999999822
50600,50600.0,2.5672874,-9.45168565,0.6183494669999999,0.119029999,0.289916993,0.1621360765,-37.11814925,42.7606201,-137.95181250000002,9.8138447651719,0.35296764689370863,149.12065039128254,12.390933333333418,27.07146666666649
50700,50700.0,1.761523445,-9.58779145,0.8696120980000001,0.07151565585,0.1943183895,0.2583320585,-36.0881046,43.14765985,-139.1075135,9.787023177439481,0.3314891643408013,150.0499052556306,12.33561666666675,27.056683333333158
50800,50800.0,2.879786645,-9.6354409,0.777380375,-0.0166397096,0.3893051115,0.20880051,-34.63455220000001,43.612364500000005,-139.002759,10.087127777848304,0.4423319768616939,149.74433881705932,12.280300000000086,27.041899999999817
50900,50900.0,4.340020785,-10.63698915,0.5080917122999999,-0.1780715955,-0.32021255800000004,0.138179772,-34.14795025,44.36393735,-138.428044,11.501075310746625,0.3923940762112754,149.32040637667288,12.224983333333421,27.02711666666649
51000,51000.0,1.0893060523809523,-10.318467952380953,-1.1893129333333332,-1.1184409142857143,-0.3950071819047619,-0.4111422490476191,-35.7713326,45.5843354,-135.8872265,10.444508734869697,1.2554339149728695,147.72635510417498,12.169666666666751,27.01233333333316
51100,51100.0,0.7542144805,-10.25565175,0.32151794850000004,-1.166104865,0.1750282245,-0.6345634575,-38.3282471,46.90895075,-129.9077605,10.289131192176887,1.3392695618017023,143.33753841420415,12.114350000000089,26.99754999999982
51200,51200.0,2.31362531,-9.4710788,-0.785976407,-0.6178215180000001,-0.11513748195000001,-0.55633086,-41.084518599999996,46.68731715,-126.22291899999999,9.781391600486009,0.8412726634308025,140.71245111610466,12.05903333333342,26.982766666666485
51300,51300.0,2.29447404,-8.657344825000001,-1.1194870449999998,0.0624603275,-0.664504225,-0.668553163,-43.850631799999995,45.7945243,-125.0911715,9.028306787831783,0.9447943463155466,140.2426335851115,12.003716666666756,26.967983333333148
51400,51400.0,2.53131023,-8.274747450000001,-1.99929274,0.0057868958499999994,-0.16376800800000002,-0.320532238,-45.8570863,45.07690425,-124.11277700000001,8.881305444429023,0.3602609558843481,139.7813635632973,11.948400000000088,26.953199999999814
51500,51500.0,2.62517392,-7.694338975,-2.18945465,0.2417472825,-0.3106170735,0.179239653,-46.38237025,44.8998257,-123.96591325,8.41966602832116,0.4328705438560548,139.76725645502427,11.89308333333342,26.938416666666484
51600,51600.0,4.708959155,-9.712470199999998,-3.45520627,0.485630037,-0.416719045,0.2550834625,-45.320347142857145,45.34040142857143,-124.4955877142857,11.333370897782089,0.6891480153924935,140.03187241547337,11.837766666666756,26.92363333333315
51700,51700.0,-0.7385604699999999,-8.5381789,-0.300906373,0.46827850299999996,0.576266456,0.28677979000000003,-44.9075316,45.80200120000001,-125.3945936,8.582475492830282,0.8018332636437555,140.84919045314098,11.782450000000091,26.908849999999813
51800,51800.0,3.89768087,-10.385419,1.21115414,0.200143436,1.1531052,0.273037721,-42.556682421052635,46.57014557894736,-127.63278578947369,11.188534552882937,1.2040930044759128,142.3729067727473,11.727133333333425,26.89406666666648
51900,51900.0,2.67999875,-10.4486316,0.340625,0.5227081339999999,-0.191038511,0.58291931,-40.81832915,46.6500093,-130.11421399999998,10.807736399392557,0.8059659797532247,144.12537439331484,11.671816666666755,26.87928333333315
52000,52000.0,1.2906464,-9.761849900000001,0.84603119,0.55327451,0.0480056766,0.09365081550000001,-39.92988625,46.3880156,-132.0325455,9.890585399121957,0.5642189152599105,145.52978984069975,11.61650000000009,26.864499999999808
52100,52100.0,1.72817992,-8.9344195,0.9707702570000001,0.205044559,0.38771058,-0.0236434937,-39.71794085,46.04827879999999,-133.746034,9.152629031338938,0.4394872462471559,146.92176740113462,11.561183333333426,26.849716666666477
52200,52200.0,1.7907822,-9.4110977,0.54436188,0.19758301,0.200015256,0.07884216100000001,-39.269942900000004,45.95588705,-134.87411200000003,9.595525230600721,0.29315743265966104,147.80089136391445,11.505866666666758,26.834933333333147
52300,52300.0,2.039669025,-9.32035835,0.2516181905,0.243235782,0.09966125465,0.214608763,-38.49159229999999,45.8928678,-135.605086,9.544894033671328,0.34009996494274275,148.2447817163704,11.450550000000092,26.82014999999981
52400,52400.0,2.13722688,-9.626525,0.931391906,0.08478240975,0.313306427,0.27148971250000004,-37.1190641,46.11991855,-136.1863735,9.907121919663627,0.4234019945646886,148.49783763477916,11.395233333333426,26.80536666666648
52500,52500.0,2.23969655,-9.6208302,0.6231361375,0.18693542850000003,0.46888199,0.22249145350000002,-35.3760525,46.08894285,-137.0107295,9.89849677055266,0.553317950136869,148.82068456990646,11.33991666666676,26.790583333333146
52600,52600.0,4.13244399,-11.8655144,1.11358719,-0.0385765077,-0.3428909305,0.17780227510000002,-33.805847,46.514815000000006,-136.9087255,12.615340324937074,0.3968522763404324,148.49444147745854,11.284600000000093,26.77579999999981
52700,52700.0,0.28543014549999995,-9.963742199999999,-1.957512695,-1.446492005,-0.556109619,-0.75004351,-35.79788165,47.02568065,-132.977145,10.168548270009154,1.7226304953229543,145.5207921750175,11.229283333333427,26.761016666666478
52800,52800.0,0.87249221,-10.766883300000002,0.2255157469,-1.51733093,0.1308189414,-0.7070113975,-38.21861275,47.5003049,-125.59387195,10.806960642531765,1.679613125257544,139.6102952801291,11.173966666666761,26.746233333333144
52900,52900.0,1.64881746,-8.856067300000003,-0.4416221541000001,-0.544681532,-0.026354980500000003,-0.78620986,-40.91781625,47.13829045,-121.46957379999999,9.022454708372038,0.9590688149377126,136.56964784229228,11.118650000000095,26.73144999999981
53000,53000.0,1.5813544925,-7.602705360000002,-0.96572264,0.33926238950000004,-0.5341659440000001,-0.468553161,-43.2157132,46.115418,-120.53192150000001,7.834018444726211,0.7907442008831963,136.09638686356377,11.063333333333428,26.71666666666648
53100,53100.0,2.275673675,-8.051073299999999,-1.95566255,0.3786888105,-0.269871515,0.06765365649999999,-43.5881809,46.58454905,-121.200712,8.592149206313874,0.4737682799191538,136.965932781233,11.008016666666762,26.701883333333143
53200,53200.0,5.0345123,-10.43205315,-4.113195035,0.36153793549999996,-0.191471096,0.128800204,-42.366028,46.9093325,-122.27402,12.298127201031814,0.4311013248346873,137.64560784542863,10.952700000000096,26.68709999999981
53300,53300.0,2.0259620545,-6.3630958600000005,-0.655611445,0.132662203,-0.5651672335,-0.3134429911,-43.634033,46.8681335,-121.995545,6.735636859182321,0.6802029873116703,137.7805450387088,10.89738333333343,26.672316666666475
53400,53400.0,2.01296384,-12.9032806,-4.338973999999999,0.61878966,-0.22907714399999998,0.7614593599999999,-41.2574765,47.9499815,-123.60763500000002,13.77854974356093,1.0093743585734425,138.8538765749746,10.842066666666764,26.657533333333138
53500,53500.0,-1.2069946000000003,-6.82680052,3.95047914,0.028634644400000006,1.0420044,0.165979002,-39.95208750000001,48.518371,-125.25482,7.9831989071788385,1.0764366223366215,140.13941368655765,10.786750000000096,26.642749999999808
53600,53600.0,3.51652828,-10.9484162,0.42525634799999995,0.5580718920000001,-0.306625368,0.379458622,-37.772369,49.131012,-127.64664,11.518809251764415,0.7428675124860574,141.89529880673774,10.731433333333431,26.627966666666474
53700,53700.0,2.62229922,-10.0103638,0.020388794,0.552105712,0.31654968400000005,-0.0249206544,-37.0063785,49.137879,-130.381015,10.348677654219443,0.6505916670923392,144.16400564002322,10.676116666666765,26.61318333333314
53800,53800.0,1.345224,-9.1431886,1.19833986,0.182891842,0.297592164,0.06541442759999999,-36.8682865,49.143219,-131.661225,9.320937396795324,0.3570314562482715,145.28962123798146,10.6208000000001,26.59839999999981
53900,53900.0,1.97634276,-9.8583344,0.60050964,0.21846924,0.32230835,0.204962158,-35.559845,49.237823999999996,-133.29773,10.073146394659602,0.4400245109611231,146.48265888977366,10.565483333333432,26.58361666666647
54000,54000.0,2.06037288,-9.315091,0.91414796,0.170098876,0.239215084,0.18813171,-34.284812105263164,49.55243578947368,-134.7161552631579,9.584669742048652,0.3488044423676791,147.57908806611695,10.510166666666764,26.56883333333314
54100,54100.0,1.65209965,-9.42265725,0.8219185,0.114334105,0.3229942425,0.17264174999999998,-33.07785135,49.90737825,-134.990692,9.601895588356912,0.3840050066102252,147.6732671242953,10.4548500000001,26.554049999999805
54200,54200.0,2.49755475,-9.492687,1.400115925,0.0259246825,0.44683839,0.299938205,-31.50497405,50.6162266,-135.7639295,9.916535865002553,0.5394164831357608,148.27846561591315,10.399533333333434,26.53926666666647
54300,54300.0,3.691963225,-11.660335750000002,1.0517578175,-0.014293670775,-0.2695503225,0.10951614805,-30.151138300000003,51.54434235,-135.491105,12.28018021586738,0.3033134015480966,148.06682407386307,10.344216666666767,26.524483333333134
54400,54400.0,1.2795104874999998,-9.821892,-1.569591525,-1.34027865,-0.404571535,-0.6303062475000001,-32.2850798,52.7330005,-132.57552750000002,10.033483347854592,1.5355458857552606,146.2869041318259,10.2889000000001,26.509699999999803
54500,54500.0,0.16380310249999994,-11.13031375,0.19942474,-1.5213776,-0.103111265,-0.45746993,-35.5212395,53.97003205,-124.188763,11.143515421140053,1.5921972329699674,139.99137466292177,10.233583333333435,26.49491666666647
54600,54600.0,1.256759675,-9.11409775,-0.015758515,-0.62947845,0.07931518700000001,-0.5959510725,-38.1390383,53.742599,-119.43969725,9.201474385187918,0.8797034606580886,136.41441482579077,10.178266666666767,26.480133333333136
54700,54700.0,1.65515745,-8.10279215,-1.82996522,0.16051330800000002,-0.5731552120000001,-0.5963302589999999,-41.43676755,53.6134336,-118.946077,8.472236253428406,0.8426774255913715,136.8927672118987,10.1229500000001,26.4653499999998
54800,54800.0,2.19002378,-8.0345579,-2.16119841,-0.05295715318,-0.0773818962,-0.300079345,-43.61228925,53.08860755,-118.28681999999999,8.608331176277806,0.31561400462478106,136.79267834429618,10.067633333333434,26.450566666666468
54900,54900.0,3.01170958,-8.618621899999999,-2.56558836,0.39157868,-0.383113094,0.1146377555,-44.08508285,53.53309670000001,-118.70452775,9.486591745569747,0.5599467712730578,137.47749088531208,10.01231666666677,26.43578333333313
55000,55000.0,2.7143555,-9.4118213,-3.35830378,0.38497162100000004,-0.0449966429,0.0691406252,-43.958206,54.1794584,-120.40580829999999,10.355164043013863,0.3938540552869516,139.15939979951182,9.957000000000104,26.4209999999998
55100,55100.0,2.29620667,-8.053588900000001,-0.6870910659999999,0.479985048,0.0377746588,0.33194275100000004,-43.4716797,54.51042165,-121.96731375,8.421016475104647,0.5859187729895646,140.48937185886493,9.901683333333438,26.40621666666647
55200,55200.0,3.50635072,-11.2757018,-4.3600387299999985,0.2020614655,0.17295227079999995,0.0681808479,-41.7520915,55.65902675,-124.01497075,12.603406043375163,0.3718311157047803,142.20022733685983,9.846366666666773,26.39143333333313
55300,55300.0,-0.29827577000000005,-9.0978132,0.1701568605,0.44397887799999997,0.291734315,0.355062868,-41.5412136,55.68695115,-126.3981635,9.170858530543589,0.6413669893150744,144.23334556546328,9.791050000000103,26.3766499999998
55400,55400.0,1.43800202,-9.290429699999999,0.6246902590000001,0.57064515,-0.020069886,0.129864505,-40.41587785,55.83000195,-129.139249,9.440756757436493,0.5912744073228611,146.3811858990406,9.73573333333344,26.361866666666465
55500,55500.0,2.551068075,-9.69211955,-0.4280410730000001,0.4164413425,0.24902115,-0.05650939895,-40.455245,55.41213979999999,-132.198258,10.039177271700586,0.4921853003892733,148.94156191308858,9.680416666666774,26.34708333333313
55600,55600.0,1.7613426449999998,-9.7093594,0.6960998655,0.17101059149999998,0.2479537945,0.11676406550000001,-40.48324615,55.53176825,-133.4600845,9.892617049545892,0.32327060571867644,150.11420839674338,9.625100000000105,26.3322999999998
55700,55700.0,2.17733008,-9.18341355,0.7335624679999999,0.2143196105,0.2218566905,0.33684769,-39.34494005,55.57502675,-135.018231,9.47213215710542,0.4567952732301697,151.21709904626292,9.56978333333344,26.317516666666464
55800,55800.0,2.001594575,-9.52321305,1.008779915,0.11482315175,0.33168335,0.177219393,-38.00575255,55.65879875,-136.51122850000002,9.784175371273891,0.3940383241959953,152.24218539008754,9.514466666666774,26.30273333333313
55900,55900.0,2.3790443,-9.14445345,1.17900545,0.0662429809,0.484976195,0.253069302,-36.8170168,55.6185918,-137.72766,9.524264854828294,0.5510957179837469,153.02893520380866,9.459150000000108,26.2879499999998
56000,56000.0,3.921274555,-10.7996135,1.13585584,-0.0698402394,-0.051767731,0.12736510925,-36.136169200000005,55.6927482,-138.1958,11.546306164427447,0.20371020893306888,153.31535239839496,9.40383333333344,26.273166666666466
56100,56100.0,1.66006466,-11.2927064,-2.23614502,-0.90986328,-0.5492889440000001,-0.5969634979999999,-39.50714179999999,56.310729599999995,-136.258242,11.640806658175693,1.2313172756313149,152.6389757426335,9.348516666666775,26.25838333333313
56200,56200.0,-0.8311004479999999,-9.8942534,0.18511658,-1.7603729,-0.0032348634000000033,-0.494702144,-44.2523196,56.6659544,-128.75518799999998,9.951979026212394,1.8288843891468238,147.47070659256747,9.293200000000107,26.243599999999795
56300,56300.0,2.31224362,-9.2818142,0.21169128199999998,-0.901767,0.247094724,-0.56607361,-47.629090000000005,55.6741336,-122.76123,9.570466255901687,1.1056171524852791,142.96377651184713,9.237883333333443,26.22881666666646
56400,56400.0,1.47475278,-7.922391,-1.15947265,0.363128664,-0.540771488,-0.6542785760000001,-52.342529600000006,53.995971999999995,-122.198182,8.157849670507655,0.9274159040396284,143.48512075277904,9.182566666666776,26.21403333333313
56500,56500.0,2.44176938,-9.082616999999999,-2.65847778,0.236154174,-0.518826304,-0.107800294,-54.9353032,52.969970999999994,-122.3840336,9.7822439205919,0.5801532408412206,144.22764593191533,9.12725000000011,26.199249999999793
56600,56600.0,2.181641375,-8.180187400000001,-1.863542185,0.12663879220000002,-0.2234313965,0.11516876225,-56.008605200000005,52.9949948,-122.320556,8.670885143984972,0.28186754026662825,144.59527580730997,9.071933333333444,26.18446666666646
56700,56700.0,4.11262129,-8.87138915,-2.7784897,0.55530472,-0.219537354,0.08555145274999999,-55.858764,53.130798399999996,-123.253478,10.167422846188783,0.6034509551042788,145.37711164604232,9.016616666666778,26.16968333333313
56800,56800.0,1.015248867,-9.1418142,-1.70463103,0.5582924020000001,-0.029075621,0.329871373,-56.471862,53.403930599999995,-124.1976924,9.377494634971756,0.6612722235569278,146.51326927802955,8.961300000000113,26.15489999999979
56900,56900.0,3.78935232,-9.68937005,-1.6926613,-0.0096046446,0.3459556572,-0.06603469684999999,-56.24969599999999,53.807067599999996,-125.77667199999999,10.832771307820916,0.4266831437569798,147.91577074520814,8.905983333333445,26.140116666666454
57000,57000.0,1.27771452,-8.524114375,0.2728637695,0.579167185,0.32848052850000004,0.4297348,-56.2881468,54.048766,-128.906556,8.627599456972254,0.7933664610871833,150.68697918228406,8.850666666666779,26.125333333333124
57100,57100.0,1.454348745,-9.444201800000002,1.7850395300000002,0.502681736,-0.017671966849999998,0.2851219265,-55.64239499999999,54.3218988,-131.675724,9.730707193195334,0.5785710418406371,152.92318866527881,8.795350000000113,26.11054999999979
57200,57200.0,1.64539794,-9.578038099999999,0.5060569810000001,0.3746406585,0.3021202,-0.1105613685,-55.8901978,54.2016592,-134.057616,9.735031653502713,0.499022062381897,155.0257668148641,8.740033333333447,26.095766666666457
57300,57300.0,1.7346890052631578,-9.483153736842103,1.328834952631579,0.19004099,0.3324914221052632,0.1315556542105263,-55.904541200000004,54.09881600000001,-136.607056,9.73539093057633,0.4071080193716694,157.20525139371222,8.68471666666678,26.080983333333126
57400,57400.0,1.62128445,-9.6073075,0.49061583,0.274925235,0.288108825,0.201126095,-55.11138879999999,54.0628056,-138.096618,9.75577939619308,0.4469185850855192,158.2114634978334,8.629400000000114,26.06619999999979
57500,57500.0,2.44907375,-9.2798995,1.20707705,0.058143617,0.374397285,0.34919739,-53.65997320000001,54.855652799999994,-139.49859800000002,9.678997934859623,0.5155956172323328,159.2120108039444,8.574083333333448,26.05141666666645
57600,57600.0,2.1845168999999998,-9.7665175,0.90361025,0.07146454,0.41594696,0.2970047,-51.914979200000005,55.72143620000001,-140.782776,10.049561977499716,0.5171387155935614,160.06210786819074,8.518766666666782,26.03663333333312
57700,57700.0,2.8716507,-11.4251025,1.7517624,-0.07661438,0.250823975,0.1292266825,-50.3764342,56.6960145,-141.3540625,11.910570364371296,0.30680062896475824,160.41595589845306,8.463450000000115,26.02184999999979
57800,57800.0,2.8967972,-10.418944999999999,-1.5169219999999999,-1.089675925,-0.5534439099999999,-0.498748785,-52.3578642,57.86026005,-137.56477149999998,10.920209451899934,1.3203359195800008,158.15749750840698,8.408133333333451,26.00706666666645
57900,57900.0,-0.9488983,-10.7936325,0.479843135,-1.5839615,-0.1576995825,-0.6963501000000001,-57.08862295,58.0457306,-127.856825,10.853899346726092,1.7381192423045588,151.5793598564091,8.352816666666781,25.99228333333312
58000,58000.0,2.0736098999999997,-9.791779400000001,0.013746644999999945,-0.82485427,0.07894897599999999,-0.7323097375000001,-61.01203925,56.62422195,-121.3673396,10.015213961667953,1.1104312377107926,147.1706962346729,8.297500000000117,25.977499999999786
58100,58100.0,1.015004725,-7.58025597,-0.5940765285,0.13697814679999998,-0.681548315,-0.4232192995,-64.634702,54.540481799999995,-118.5309615,7.680036806170218,0.8180781011069415,145.60885311482915,8.24218333333345,25.962716666666452
58200,58200.0,2.114243285,-8.8845,-2.379852225,0.189488983,-0.7271354720000001,0.1230453495,-64.6703335,54.370650899999994,-116.3569649,9.449299192206574,0.7616887358559862,143.79637188768288,8.186866666666784,25.947933333333122
58300,58300.0,2.992853535,-8.5075829,-2.815654015,0.146617122,-0.130905154,-0.10662841795,-65.0412739,54.5661927,-115.2816771,9.448906201789663,0.2243563531735861,143.17048892473915,8.131550000000116,25.933149999999785
58400,58400.0,2.93773044,-8.557445600000001,-3.10385513,0.28270567950000003,-0.437438967,-0.0940551765,-65.55458349999999,53.95973185,-114.35928200000001,9.567343349732104,0.5327147620522454,142.43314776888946,8.076233333333452,25.91836666666645
58500,58500.0,1.070793158,-10.260560425,-0.8833557234999999,0.695977765,0.06690826605,0.362096405,-65.450975,54.44084165,-116.208116,10.355778229706461,0.7930612197164505,144.05599648564476,8.020916666666785,25.90358333333312
58600,58600.0,1.3405320126315787,-8.577264810526316,-1.3691767494736844,0.04505920417894737,0.956670647368421,-0.13959221789473686,-65.5406194,54.5115665,-117.1633159,9.018398764833297,0.9727734962877486,144.8944606143753,7.965600000000119,25.888799999999787
58700,58700.0,2.40393982,-9.9045444,-0.1072174039999999,0.5979095400000001,0.7049529959999999,0.488537592,-64.92591775,55.7750711,-121.02210925,10.234105403016896,1.0531375989167062,148.23205905652063,7.910283333333452,25.87401666666645
58800,58800.0,1.88966368,-9.4170898,2.06599732,0.41937560799999996,0.0947631826,0.27080078,-64.718019,55.9265894,-124.564512,9.829188429233676,0.5262924328375439,151.1044120609689,7.854966666666787,25.859233333333115
58900,58900.0,1.111795044,-9.3115054,0.08455810240000003,0.34076233,0.23687439,-0.15189209,-64.43779015,55.55786245,-127.228395,9.385496836307633,0.4462400388141935,153.055478099492,7.79965000000012,25.84444999999978
59000,59000.0,2.07976684,-9.6265776,1.2435913,0.213146974,0.346383668,0.17449951200000002,-63.863295799999996,55.2150728,-128.6653145,9.927399109535347,0.4431031770330099,153.88975273652892,7.744333333333454,25.82966666666645
59100,59100.0,1.77810364,-9.5446992,0.344091796,0.16009216199999998,0.31740417600000004,0.312979132,-62.60643025,55.86784335,-130.153351,9.716768037885977,0.4768982650040553,154.85707525688008,7.689016666666786,25.814883333333114
59200,59200.0,2.48534848,-9.535354199999999,1.41645204,0.11513671800000001,0.22835083,0.266964722,-60.68977320000001,56.02577205,-131.22696100000002,9.95637304253705,0.3696935040129585,155.05699760865943,7.633700000000122,25.80009999999978
59300,59300.0,2.055949375,-9.67925375,0.864353939,0.1484764095,0.33855666799999995,0.32076035,-58.7826539,56.1386873,-131.398696,9.935872323493971,0.490321973514173,154.5078077065898,7.5783833333334565,25.78531666666645
59400,59400.0,3.566927315,-10.9080828,0.7315284900000001,-0.0997230519,-0.0016418470000000018,0.107495115,-56.81373589999999,55.717620999999994,-130.874099,11.50744374866847,0.17781934424287893,153.1675229557157,7.523066666666789,25.770533333333116
59500,59500.0,1.1335601684210528,-10.689008894736842,-1.4209618684210528,-1.2485705157894738,-0.5974843847368421,-0.8332937263157895,-57.257641578947364,53.835176947368424,-124.17401894736844,10.863351783672053,1.6198227797296665,146.9569159308393,7.467750000000121,25.755749999999782
59600,59600.0,-0.0036079249999998453,-10.271155825,0.3658164925,-1.37298283,0.150643157,-0.448579415,-58.548888500000004,50.0068668,-115.637053,10.316944621060074,1.4527942982647903,138.92727251232373,7.412433333333457,25.740966666666445
59700,59700.0,1.2024132,-9.5123737,-0.2665527355,-0.526949311,0.08678283284499999,-0.683409905,-58.9794924,46.7497256,-110.7652283,9.59458151205142,0.8814434787954462,133.91456224673422,7.3571166666667915,25.72618333333311
59800,59800.0,1.25430829,-8.353877350000001,-2.1770690750000004,0.06656494095000001,-0.6120903045,-0.5452522325,-59.8071286,44.485017,-109.49264199999999,8.729828234970629,0.8269394457188147,132.45557191929726,7.301800000000124,25.71139999999977
59900,59900.0,2.340803465,-8.40984725,-2.350465415,-0.1233726495,-0.4203399675,-0.326921855,-59.2919929,42.4537655,-106.926422,9.042872774030576,0.5468942840690569,129.42615226370242,7.246483333333456,25.696616666666447
60000,60000.0,2.075607321052632,-7.818495878947368,-1.946864047368421,0.03188283631578949,-0.34143387894736843,0.011454532263157888,-57.98187289999999,41.2905881,-104.6911618,8.32220168503537,0.3532914707833338,126.59801458650072,7.191166666666793,25.68183333333311
60100,60100.0,3.79557494,-8.93190315,-3.4559845,0.48606416,-0.18486938600000002,0.263662716,-56.50634889999999,42.3814392,-105.07888899999999,10.3040331681019,0.583909802556134,126.61276783459179,7.135850000000127,25.667049999999772
60200,60200.0,1.14195403,-8.9187332,-1.39673156,0.616560363,0.299090576,0.348776254,-54.405365,43.71200500000001,-106.81518600000001,9.117104453453953,0.7814458332537276,127.59412827321532,7.08053333333346,25.652266666666442
60300,60300.0,3.79377595,-9.8270905,-1.738866437,0.04253616305,0.5730156,0.03990173470000001,-52.3481745,44.878082299999996,-107.7653525,10.782515714910765,0.7090321885233394,127.93676993056641,7.025216666666792,25.637483333333112
60400,60400.0,0.4185593000000001,-8.59940725,-0.1674255375,0.592268366,0.34861679799999995,0.423872385,-52.0683299,45.5076586,-111.1212152,8.680835583678661,0.8085624871381341,130.88169150647084,6.969900000000128,25.62269999999977
60500,60500.0,2.140518185,-9.3529219,0.7002914404999999,0.5046462909999999,0.134819031,0.210242462,-50.68283,47.05062879999999,-112.936402,9.627914819446383,0.5637501223726679,132.4280183713262,6.914583333333462,25.60791666666644
60600,60600.0,1.840893545,-9.21711225,-0.118709565,0.368141173,0.2363952675,-0.12483902,-50.2217104,47.6181029,-115.434418,9.411767498756717,0.4583679505474041,134.59147883688462,6.8592666666667945,25.59313333333311
60700,60700.0,1.59530714,-9.7522132,0.6064392,0.23588485850000002,0.2906738305,0.14456405875,-49.477233899999995,47.7882386,-116.5463255,9.900738276380759,0.4015267666365776,135.33213085601395,6.803950000000127,25.57834999999977
60800,60800.0,2.100057521052632,-9.483216815789474,0.483687547368421,0.3638988389473684,0.20398591736842106,0.4626264063157894,-47.948151,48.4689318,-118.234403,9.73073383448896,0.623062589860527,136.48370902798993,6.748633333333462,25.563566666666443
60900,60900.0,2.343132025,-9.90747825,0.470561985,0.2608146675,0.17385863899999998,0.28875351,-45.9828184,49.5726014,-119.929045,10.191917995433434,0.4323643810158784,137.676683424679,6.693316666666796,25.548783333333105
61000,61000.0,2.6281617473684213,-9.247512815789474,1.2542419526315791,0.01371443884210526,0.6818429894736842,0.19586101421052632,-44.7497561,49.8812868,-120.94650320000001,9.697878346808732,0.7097996245203808,138.27081962803416,6.63800000000013,25.53399999999977
61100,61100.0,3.76792302,-11.6590178,1.0621063199999998,0.0037109374,-0.1885955812,0.0036315920000000172,-43.6795041,50.048064200000006,-121.4291388,12.303949246754575,0.20711819209927654,138.4119886242932,6.5826833333334624,25.51921666666644
61200,61200.0,0.8558494489999999,-10.12642445,-1.60479046,-1.37351532,-0.254317474,-0.79425355,-45.157776,48.9161685,-118.216707,10.291920825752372,1.6075887790117438,135.67377792441437,6.527366666666797,25.504433333333107
61300,61300.0,0.5733955374999999,-11.170242625,-0.11116333199999999,-1.5266449050000002,-0.1205284116,-0.42444153149999997,-46.482696600000004,45.993652399999995,-110.805967,11.198086240211477,1.5891629894185555,128.6631855195174,6.472050000000131,25.48964999999977
61400,61400.0,1.04116824,-8.625328099999999,-0.208732601,-0.5165634,0.23953094800000002,-0.622959915,-48.307953000000005,43.06137010000001,-106.9358815,8.691025540970116,0.8460060063998441,124.99370621725882,6.416733333333465,25.47486666666644
61500,61500.0,1.5440597400000002,-8.256973,-1.34813535,0.008287048299999999,-0.60692749,-0.445597839,-49.049988,41.2971494,-105.40710349999999,8.511000490340027,0.7534591918821795,123.37778959189959,6.3614166666667975,25.460083333333106
61600,61600.0,2.24137111,-8.171858299999998,-2.1294768900000003,0.071778868,-0.329316712,-0.28601379,-49.1184997,40.46112120000001,-104.6833815,8.738561812348744,0.44268227257797294,122.50871777460415,6.306100000000132,25.445299999999772
61700,61700.0,2.14392781,-8.199811650000001,-2.2469154500000004,0.2263504065,-0.2447921775,0.17008133225000002,-48.658751099999996,40.533294299999994,-104.5082098,8.768393684806941,0.3748357727498089,122.19901152164336,6.250783333333466,25.43051666666643
61800,61800.0,4.91786175,-10.4602474,-3.10625379,0.275891112,-0.08317871075,0.058271789299999995,-47.0661925,41.396942,-104.99084350000001,11.969188218864467,0.295923097207534,122.27841887777336,6.1954666666668,25.4157333333331
61900,61900.0,0.3953315849999999,-8.30324208,-0.8581641950000001,0.534847282,0.4816749535,0.22126236100000002,-47.1147168,41.829528700000004,-106.258086,8.367406356868454,0.7555556325852449,123.53257005332176,6.140150000000133,25.40094999999977
62000,62000.0,5.053480565,-11.772681075,-3.280611435,0.1825653115,0.2606773359999999,0.28939285600000003,-44.4061283,43.7390134,-107.0378115,13.229920335418436,0.4565783894487908,123.8634780154477,6.084833333333467,25.38616666666643
62100,62100.0,0.23013534299999994,-7.89514838,-0.1955665550000001,0.49846724600000003,0.406673429,0.34126663399999996,-44.2240908,44.0872191,-109.02893,7.912584362837812,0.7302162726608129,125.64560766707564,6.029516666666801,25.3713833333331
62200,62200.0,1.502942655,-9.76161375,1.28914489,0.48015365649999997,-0.14480819479999998,0.254497525,-43.04214500000001,45.0930774,-111.096802,9.961009568098033,0.5633328887879823,127.39125433330187,5.974200000000135,25.356599999999773
62300,62300.0,2.209947175,-9.300912025,-0.013786316499999951,0.455442049,0.1170845034,-0.06475601289999999,-41.8969718,46.1453249,-112.925418,9.560756634247836,0.4756241063229407,128.9841354498094,5.9188833333334685,25.341816666666432
62400,62400.0,2.0336143800000004,-9.1236731,0.9014038335,0.24914627,0.205610656,0.11302947835,-41.5715029,45.951231799999995,-114.3182382,9.390959984206926,0.34271251308339923,130.03236309218835,5.863566666666802,25.32703333333309
62500,62500.0,1.0370940999999998,-9.29306,0.25239563,0.33564758,0.07878113,0.3779602,-39.962616,46.4212035,-115.90805120000002,9.354155861963065,0.5115854544335416,131.09776142960874,5.808250000000137,25.312249999999768
62600,62600.0,3.2170104999999998,-9.712050999999999,1.6506042,0.1918335,0.24603271,0.4994049,-37.504195,47.283936,-117.0864125,10.363280629644693,0.5888441561705474,131.7261039987299,5.75293333333347,25.29746666666643
62700,62700.0,1.5231171000000001,-9.308624,1.0616302,0.13111877,0.5059509,0.25971985,-35.75324974999999,47.39761375,-118.378067,9.491966348193637,0.5836375977789174,132.43242615340677,5.697616666666804,25.282683333333093
62800,62800.0,3.5881195,-10.283066,2.1916962000000004,-0.0126953125,0.35575867,0.30020142,-33.637619,47.64938375,-119.3649325,11.109436535654304,0.4656675797279192,132.8532685770942,5.642300000000138,25.267899999999766
62900,62900.0,0.98921204,-11.796204,-1.8592987,-0.41110230000000003,-0.39952087,-0.34109497,-32.29103,46.837616,-119.62623625,11.9827359532587,0.6670590717396382,132.46476620567992,5.586983333333472,25.253116666666433
63000,63000.0,-0.18154907,-9.976608,-0.6717681999999999,-1.775711,-0.42401123,-0.8673248,-32.81440725,45.3041075,-114.7911075,10.000846952384238,2.021184649501909,127.69612843552666,5.531666666666805,25.23833333333309
63100,63100.0,1.1268768,-11.195267,-0.8166199000000001,-1.1216278,0.07772827,-0.6851654,-33.7024675,43.394470500000004,-110.01587099999999,11.28143264770673,1.3166405094205451,122.97338834113708,5.476350000000139,25.22354999999976
63200,63200.0,1.5231171000000001,-8.810638,-0.51374817,-0.11602783,-0.67648315,-0.7746582,-35.4946125,42.1691895,-108.89740249999998,8.95606860455718,1.0349817565521005,122.05242049668615,5.421033333333472,25.20876666666643
63300,63300.0,-0.0019836426,-7.540512,-2.1035004,0.16200256,-0.49006653,-0.39755250000000003,-36.433105600000005,41.9903564,-110.029601,7.8284122968697885,0.6515044309358491,123.27650985912427,5.365716666666807,25.19398333333309
63400,63400.0,2.783191715,-7.639146435,-1.87534103,0.1660003675,-0.1592498825,0.0995048505,-36.200256200000005,42.1783454,-110.04028400000001,8.344095600839648,0.251249680253368,123.2816741254477,5.31040000000014,25.17919999999976
63500,63500.0,5.085681885,-9.97241795,-3.93817742,0.469925693,-0.5026870914999999,0.23623352399999997,-34.8886112,42.7481076,-112.32605,11.866874809160128,0.7280424810796321,125.14702985057579,5.255083333333474,25.164416666666426
63600,63600.0,0.48355636350000003,-7.9189147700000015,-1.1711425715,0.33740310650000005,0.429739376,0.06350173975,-35.018004600000005,43.418275,-113.70849399999999,8.033949408481547,0.5548751781734406,126.65324777019931,5.1997666666668065,25.149633333333092
63700,63700.0,4.870634485,-10.8579166,-2.83492968,0.268061055,0.198899081,0.0931655888,-33.0242918,43.8717648,-116.26648,12.241643033088708,0.3593721410211113,128.58170122309852,5.144450000000142,25.134849999999762
63800,63800.0,0.0194435121,-8.6001779,0.1304656985,0.5230819704999999,0.16720581,0.485710147,-32.591858200000004,44.146728,-118.96575800000001,8.607673363201897,0.7331454830292157,131.0117530821734,5.089133333333474,25.12006666666643
63900,63900.0,1.218100745,-9.49100575,0.653841397,0.517540735,0.0195655823,0.2655777015,-31.334534,44.166564,-120.9497092,9.592622419977461,0.5820865224703379,132.51947352239137,5.033816666666809,25.10528333333309
64000,64000.0,1.6146987499999998,-9.66501175,-0.215911866,0.473591617,0.361289978,-0.07594451860000001,-31.175537199999997,44.197694,-123.79394479999999,9.802286383013096,0.6036134707102858,135.0937222823353,4.978500000000143,25.09049999999976
64100,64100.0,2.12765348,-9.6675248,0.709091183,0.143263241,0.40678405799999995,0.10951233,-31.181334999999997,44.39087,-124.62768600000001,9.92456297084879,0.4449632513825025,135.92234955831847,4.923183333333477,25.075716666666427
64200,64200.0,1.51221921,-9.206042800000002,0.5824371429999999,0.26939087,0.235057071,0.26386871500000003,-30.6610104,44.03442379999999,-126.1343382,9.349236077068822,0.4448068127007563,137.0730906182008,4.867866666666809,25.060933333333093
64300,64300.0,2.20737608,-9.545179899999999,1.24586941,0.194609073,0.15240173499999998,0.408862306,-29.0838624,43.614808,-127.5753772,9.876380488420434,0.4778002046310577,137.92629747626384,4.812550000000144,25.046149999999763
64400,64400.0,1.87433931,-9.3555546,0.930435195,0.133995052,0.25307007,0.22563018699999998,-28.189391600000004,43.4609982,-128.30139,9.588081915438178,0.3658632088332158,138.36454551862525,4.7572333333334775,25.031366666666425
