Unnamed: 0,st,ax,ay,az,gx,gy,gz,mx,my,mz,AccTotal,GyrTotal,MagTotal,lat,lng
10000,10000.0,1.72339325,-9.3380816,0.72525178,0.322228992,0.231753543,0.1234756475,-38.0878456,40.35446195,-129.956972,9.527783231949012,0.4167650611293982,141.30816666817933,33.19,32.63
10100,10100.0,1.67958224,-9.573910699999999,0.216242977,0.233061215,-0.0143142698,0.106326296,-37.70034825,40.0675207,-130.87905550000002,9.722649936250816,0.2566049909111029,141.97207894810043,33.138140625,32.616140625
10200,10200.0,1.60099409,-9.6808012,0.02339019767,0.1564682,-0.08190384099999999,0.06861038025,-37.5805662,40.0064088,-131.256104,9.812668852606276,0.18953036939714302,142.27112154313062,33.08628125,32.60228125
10300,10300.0,1.415381595,-9.5989212,0.030862426600000003,0.08749313199999999,-0.022357177000000002,0.029675293,-37.292175,40.1971436,-131.90765199999998,9.702915554576082,0.0953410496727943,142.85016194694538,33.034421875,32.588421874999995
10400,10400.0,1.252396365,-9.593652699999998,0.18015136725000006,0.055217742750000014,-0.007077789300000001,0.015777588000000002,-37.4264528,39.969788,-131.770324,9.677473913801618,0.05790887110145555,142.69462286231138,32.9825625,32.57456249999999
10500,10500.0,1.290157315,-9.62059695,0.3092506405,0.06198349005,0.03069305375,0.048210143899999995,-37.21626689473684,39.74906484210526,-132.15428631578948,9.71166277981061,0.08434271117927937,142.93286300018303,32.930703125,32.56070312499999
10600,10600.0,1.342178385,-9.63909425,0.4368614195,0.0493568423,0.060842132400000005,0.0635475159,-37.292175,39.858092,-132.282102,9.741913689183418,0.10089211655514628,143.1011904833417,32.87884375,32.546843749999994
10700,10700.0,1.5708119842105264,-9.724146684210526,0.2444570442105263,0.020156057263157896,0.022162989263157896,0.010388022815789473,-37.018433,39.931336,-132.164918,9.853340784385686,0.032555239925969266,142.94212426620095,32.826984375,32.532984374999984
10800,10800.0,1.4050873,-9.674704,0.415441896,0.0209655762,0.043640137,-0.00020141600000000005,-36.8817136,39.8553466,-132.29492,9.785053005750806,0.048475093840865284,143.00600164048913,32.775125,32.51912499999998
10900,10900.0,1.33445126,-9.869116400000001,0.27993164800000003,0.022460938,0.0442749012,-0.00340271,-37.022705,40.0097658,-132.74078400000002,9.96303827312511,0.04978514545666991,143.49773764069494,32.723265625,32.50526562499998
11000,11000.0,1.34498902,-9.8269778,0.41927186,0.0418518066,0.026586914,0.0332458494,-36.93963895238095,39.78387733333333,-132.86241666666666,9.927491260476431,0.0599055319092493,143.52604514746213,32.671406250000004,32.491406249999976
11100,11100.0,1.140640275,-9.76232875,0.30986023,0.045097350999999994,0.0015525818,0.0282859805,-36.830444,39.53544700000001,-132.94258549999998,9.83362835385262,0.05348731254935225,143.5036050132521,32.619546875000005,32.477546874999966
11200,11200.0,1.267234825,-9.67793275,0.311950685,0.008350372325000001,0.04071045,-0.00020599370000000004,-36.7983245,39.52705345,-133.278805,9.76553533701628,0.0417065741102877,143.80478776262143,32.567687500000005,32.46368749999996
11300,11300.0,1.327686325,-9.6545865,0.3762893675,0.019001007,0.009552001999999999,-0.006858825749999999,-36.64207425,39.7767638,-133.073957,9.75272646510226,0.02239097943611122,143.64402286290056,32.51582812500001,32.44982812499997
11400,11400.0,1.25825885,-9.67464075,0.3897628675,0.031513214,-0.0008354186749999999,-0.01219177275,-36.67388825000001,39.628372799999994,-133.643421,9.763914838675383,0.034130347082092616,144.1386716548692,32.46396875000001,32.435968749999965
11500,11500.0,1.2684534947368422,-9.730447368421055,0.38584096842105264,0.03171017278947368,0.01907830515789474,-0.022462543578947367,-36.90054757142858,39.41803066666667,-132.75603857142858,9.8204791175956,0.04369703953058222,143.31643093798246,32.41210937500001,32.42210937499996
11600,11600.0,1.23281864,-9.5273418,0.521978751,0.031729126,0.033837891200000005,-0.042286681900000005,-36.9448854,39.5379644,-133.273924,9.6209927506284,0.06328471918098533,143.84065330512422,32.36025000000001,32.40824999999996
11700,11700.0,1.21666104,-9.6980452,0.57692869,0.07263336399999999,0.0241424558,-0.0441986083,-37.062073,39.3313602,-133.617558,9.791206270190397,0.08943091261295534,144.13265863068858,32.30839062500001,32.394390624999964
11800,11800.0,1.08653414,-9.4660463,0.9707702420000001,0.175320435,-0.05927429099999999,0.096095278,-36.907959600000005,39.10553,-134.127196,9.577760598675491,0.2091233963114446,144.50448372821262,32.25653125000001,32.380531249999954
11900,11900.0,1.35372927,-9.69110725,0.613800042,0.146672058,-0.028266906900000006,0.0130096435,-36.8728636,39.052124,-134.924316,9.804813152954306,0.1501676989740892,145.22166006792088,32.20467187500001,32.366671874999945
12000,12000.0,1.82873227,-9.8163252,1.01111449,0.0887191792,0.02008667,-0.112593076,-36.927185200000004,38.6526484,-134.49829,10.037358560310723,0.14535261586556494,144.732413990982,32.15281250000001,32.35281249999995
12100,12100.0,1.7627761999999998,-9.4598234,1.00788881,0.0227783205,0.046296692199999996,-0.0946914668,-37.260436999999996,38.524476,-134.964602,9.675540324824166,0.10824352843999,145.2168635510526,32.10095312500001,32.33895312499995
12200,12200.0,2.38598476,-9.288994,1.38939359,0.0512191779,0.06408996565000001,-0.0381256091,-37.436828799999994,38.375547999999995,-135.210568,9.691322675448367,0.0961473051059754,145.45145261524877,32.04909375000001,32.32509374999995
12300,12300.0,1.54454345,-9.4484543,0.842318728,0.12472686300000001,-0.07514801039999999,-0.020877075,-37.49603320000001,38.14971900000001,-135.52307,9.61093554959408,0.1474010858210997,145.6978695329229,31.99723437500001,32.31123437499994
12400,12400.0,1.78779449,-9.3137785,1.12627868,0.080198669,0.06269683599999999,0.10451355,-37.632752,38.262634000000006,-135.330202,9.551077917421306,0.1463961507419201,145.583505728891,31.94537500000001,32.297374999999946
12500,12500.0,1.90211791,-9.599403599999999,1.05409238,0.07870788570000001,0.137268065,0.191752623,-36.73618885714286,38.35906857142857,-136.17074,9.842743377078232,0.2488945917647429,146.16240228060346,31.89351562500001,32.283515624999936
12600,12600.0,2.106039810526316,-9.361368210526317,1.4505655210526316,0.0003075853684210514,0.3086074010526316,0.18671457789473686,-36.097718,38.6755374,-136.34216,9.705079025685986,0.36096874435269294,146.24665610106643,31.84165625000001,32.269656249999926
12700,12700.0,2.093355585,-9.78154745,1.713809205,0.0621940613,0.19149017,0.181150058,-35.0061032,38.8583372,-136.50696000000002,10.148953380679274,0.2717129117744833,146.18336641876832,31.78979687500001,32.25579687499993
12800,12800.0,1.014589715,-10.2455367,1.96329427,-0.005186462575,-0.010424041949999999,0.202568052,-34.64927670000001,39.21440145,-137.0441405,10.481562933714583,0.20325449978180107,146.69524236510492,31.737937500000008,32.24193749999993
12900,12900.0,0.9965087890000001,-9.96577505,0.536163322,-0.2879539545,0.1175628655,0.1363090495,-34.295501800000004,39.57183845,-136.983569,10.033117002390489,0.3401001063955603,146.65157799228416,31.686078125000016,32.228078124999925
13000,13000.0,2.41753238,-10.2014825,-0.601501465,-0.7402664259999999,-0.2107002275,-0.13970641975,-34.2015083,40.65536420000001,-134.84977450000002,10.502281803403584,0.7839586132190564,144.93824841987004,31.634218750000013,32.21421874999992
13100,13100.0,0.0900680558,-10.341791800000001,-0.6561424495000001,-1.5486511,-0.392961119,-0.67248842,-36.24038710000001,41.776429,-130.682909,10.376030411804551,1.736371123048546,141.90487299217526,31.582359375000014,32.20035937499993
13200,13200.0,0.81006012,-10.598445175,-0.7611274895,-0.893297591,0.0256813044,-0.707908635,-38.9573669,41.56929045,-126.21894650000002,10.659091508621948,1.1410994366100031,138.48140594532822,31.530500000000014,32.186499999999924
13300,13300.0,2.13531187,-9.0980623,-0.447913357,0.014364623649999997,-0.08989868164999999,-0.8670104890000001,-42.0062257,40.90866055,-124.77218625,9.360475738415396,0.8776871796344166,137.86335692468322,31.47864062500002,32.172640624999914
13400,13400.0,0.592257694,-7.59581308,-1.67781068,0.047387695599999995,-0.564840708,-0.25331115400000004,-44.32769785,39.96414179999999,-124.37721075,7.8046884390842335,0.6244192787808447,137.95573721264608,31.42678125000002,32.15878124999991
13500,13500.0,3.22563476,-8.179043400000001,-1.63184812,0.139215086,-0.381625362,0.0522064212,-44.614717,40.032729499999995,-123.32603370000001,8.94483827589365,0.4124652004138121,137.12201303934566,31.37492187500002,32.14492187499991
13600,13600.0,4.41555188,-9.5751066,-2.84306944,0.44089966799999997,-0.4461731,-0.030670166380000002,-44.4773866,40.2802278,-123.8140868,10.92681925329892,0.6296567131375639,137.58886397313094,31.32306250000002,32.131062499999906
13700,13700.0,1.305245968,-8.077526800000001,-1.4953766000000002,0.280258178,-0.1822052008,-0.018737792399999998,-45.08132935,40.1555635,-123.68926825,8.360804399884032,0.3838270612789042,137.63676279503642,31.271203125000017,32.117203124999904
13800,13800.0,4.35545646,-12.6143034,-3.66140748,0.278124998,-0.28062744,0.476815798,-43.83544955,40.85121145,-125.297775,13.868136127478376,0.6221597617840167,138.88841513737796,31.219343750000018,32.1033437499999
13900,13900.0,-0.74442444,-7.9582977,1.219171148,0.3718628,0.368966676,0.1165527348,-43.53179947368422,40.827379578947365,-126.31474578947369,8.106834789000091,0.5650155475418726,139.70455870974018,31.167484375000022,32.0894843749999
14000,14000.0,2.05893864,-10.362796000000001,-0.384701534,0.38337097,0.6082275199999999,0.275057992,-42.126464,41.2551885,-129.010775,10.582208194633802,0.7742560839363879,141.84698194979075,31.115625000000023,32.075624999999896
14100,14100.0,3.18858412,-10.12361655,0.986334988,0.469922634,-0.1605232225,0.192763519,-41.207886,41.162872,-130.79071000000002,10.66535205389782,0.5372056106425044,143.17367226648423,31.063765625000023,32.06176562499989
14200,14200.0,1.44458847,-9.99941275,0.2833946225,0.4117591895,0.021684265249999998,-0.07893295335,-41.16745,40.8859255,-132.54013,10.108520713058622,0.4204393498276798,144.68362418675048,31.011906250000024,32.04790624999989
14300,14300.0,1.7938987700000002,-9.60174285,0.5240684529999999,0.2069671615,0.371358497,0.13455047650000002,-41.027069,40.842438,-133.57925500000002,9.784341160638226,0.4464763323338961,145.5842453203519,30.960046875000025,32.03404687499989
14400,14400.0,2.17631456,-9.796565699999999,0.952403255,0.23264236649999998,0.40305251649999996,0.28224564350000003,-40.011596000000004,40.937805,-135.20737,10.082306007303087,0.5463025203108498,146.82611948590403,30.908187500000025,32.020187499999885
14500,14500.0,2.59128721,-9.3921836,1.36617659,0.124514007,0.08981933539999999,0.2636100795,-38.8427735,40.979766999999995,-135.64224000000002,9.844978108980817,0.31081992829357,146.9249080292187,30.856328125000022,32.00632812499988
14600,14600.0,0.84818954,-9.785673800000001,0.8973327565000001,0.136230467,0.3906951915,0.1347618117,-38.020325,41.452789,-136.47537,9.864625799573258,0.4352631721933589,147.61241134129588,30.804468750000023,31.992468749999887
14700,14700.0,3.58811185,-9.6402205,2.00135805,-0.074485779,0.53738402,0.23681641,-36.5608215,41.637421,-137.32146999999998,10.479345315607016,0.5922378749226564,148.07989329923797,30.752609375000034,31.978609374999884
14800,14800.0,2.34552005,-12.099075,0.22844696,-0.017486571500000003,-0.56995391,-0.09394836599999999,-36.46698,42.2050475,-137.33597,12.345444802419985,0.5810227151154607,148.2304878918693,30.700750000000035,31.964749999999885
14900,14900.0,0.69711305,-9.162582,-0.9889984,-1.5269622999999999,-0.27541351000000003,-0.46572113,-38.5040285,42.960358,-134.10262999999998,9.248088545894054,1.6210906610663542,145.98618050650688,30.648890625000032,31.95089062499989
15000,15000.0,0.6612091,-11.6118545,-0.043289185,-1.3645172,-0.20084381,-0.52697755,-40.7203675,43.751526,-128.07312,11.632211424868645,1.4773721141401928,141.3335547775039,30.597031250000033,31.93703124999989
15100,15100.0,1.5063553,-8.7376095,0.19852446787000005,-0.31576538499999995,0.26574707,-0.662796,-42.74902350000001,43.182371999999994,-124.809265,8.873350535500453,0.7999813756510976,138.81525637524987,30.545171875000033,31.92317187499989
15200,15200.0,0.92995453,-8.152824500000001,-0.948898325,0.17905426000000002,-0.579544065,-0.52484131,-45.3765875,42.2958365,-124.31182700000001,8.27118683357989,0.8043392043916567,138.92960047745666,30.493312500000034,31.909312499999892
15300,15300.0,2.86207585,-8.628074999999999,-2.57456205,0.105552675,-0.09272003,-0.045478820499999996,-46.3539125,41.73584,-124.906925,9.455519981989053,0.15033727366235644,139.615021737308,30.441453125000034,31.89545312499989
15400,15400.0,3.053729235,-8.07537825,-1.7011535450000002,0.20456390300000002,-0.333358768,0.048053741100000005,-46.6430675,41.781617,-124.18136750000001,8.799948467334618,0.3986578680099275,139.07659997936923,30.389593750000035,31.88159374999989
15500,15500.0,4.259811415,-9.4531174,-3.92554938,0.2178825355,-0.638084409,-0.08691787880000001,-46.6445925,42.018891,-124.266815,11.09615335907258,0.6845927520183952,139.22491313791826,30.337734375000032,31.86773437499989
15600,15600.0,-0.6231040976,-10.52931275,-1.367580425,0.5344268919999999,0.2723999005,0.7224739099999999,-45.66313010526316,42.355507894736846,-126.15075389473684,10.668259440686576,0.9593074450046928,140.68861572708718,30.285875000000033,31.853874999999892
15700,15700.0,0.021297475000000118,-6.53351195,2.88062595,0.19849624649999997,1.456706245,0.1093566925,-43.79653965,42.7310178,-127.50251740000002,7.476621926762732,1.4744391837943085,141.4247854480411,30.234015625000033,31.84001562499989
15800,15800.0,4.323671709999998,-10.91657695,-0.4057159325,0.489205935,0.07287368768500001,0.35996322950000004,-42.3373412,43.1204212,-129.804767,11.758867518976377,0.6224043706891823,143.18210035413563,30.182156250000034,31.82615624999989
15900,15900.0,2.4772667100000003,-10.23926235,1.44451985,0.6040374900000001,-0.047499085700000006,0.09604034474999999,-41.500167499999996,42.79106145,-131.321334,10.640818485760725,0.6148616139946654,144.21738362959255,30.130296875000035,31.81229687499989
16000,16000.0,0.424661258,-8.989718400000001,1.1894866640000001,0.161798092,0.21791077,-0.07711487,-41.8087761,42.20855705,-133.02917,9.092467386978797,0.2859986385360817,145.69250371944568,30.07843750000003,31.798437499999896
16100,16100.0,1.91361084,-9.676376600000001,0.63809814,0.289196788,0.24177857,0.189416508,-41.08901915,42.41752625,-134.1882295,9.88572599195137,0.4219218096890381,146.60845536107732,30.02657812500004,31.784578124999896
16200,16200.0,2.186786,-9.2892364,0.49659730399999996,0.18501892399999997,0.19639893,0.256524658,-40.3403467,42.30606045,-135.78620949999998,9.55742842137632,0.3728125876180925,147.83471054840658,29.974718750000036,31.770718749999894
16300,16300.0,1.60045166,-9.809494,1.30440674,0.139215086,0.1239532484,0.269305422,-38.9314271,42.48832715,-135.976866,10.026145496486244,0.32935516191107106,147.68427273510602,29.922859375000037,31.756859374999895
16400,16400.0,1.7963012999999999,-9.7127748,0.9160613999999999,0.1053314204,0.41967163,0.36688843,-37.5716402,42.7111047,-136.86782649999998,9.92547048941295,0.5701008973514654,148.21868874809192,29.871000000000038,31.7429999999999
16500,16500.0,3.249582,-10.9716404,1.30728148,-0.0942932116,-0.10912780464,0.150421146,-36.02081285,42.89321925,-137.1745295,11.518265481645036,0.2343802703815008,148.16986946244023,29.81914062500004,31.7291406249999
16600,16600.0,1.47810362,-10.4420442,-2.13534852,-1.05622864,-0.445529178,-0.5057739219999999,-37.21641585,43.50273225,-135.45357149999998,10.763817185211673,1.2580793361558793,147.05599303091557,29.76728125000004,31.7152812499999
16700,16700.0,-1.1598236199999998,-11.2962953,0.8870941179999999,-1.6182556000000001,-0.21160278,-0.79744872,-39.773790000000005,44.1652677,-128.58985975000002,11.396320690421419,1.8179490529094295,141.66195037150828,29.71542187500004,31.701421874999898
16800,16800.0,1.58375552,-10.001809075,-0.12452011049999995,-0.921102905,0.021634672999999997,-0.66557005,-42.04116785,43.6077117,-123.612519,10.13158247697306,1.1454521170273673,137.65651197969942,29.663562500000037,31.687562499999906
16900,16900.0,1.95861513,-7.52614429,-1.35926365,-0.01167907750000001,-0.4454254195,-0.6201301585,-44.6627809,42.76390015,-121.93550175,7.897587442830405,0.7678003902996174,136.7183322162388,29.611703125000037,31.673703124999903
17000,17000.0,1.442675005,-7.46821057,-2.01671755,0.28573837300000005,-0.2383933975,0.017750548,-45.9028625,42.2383885,-122.4361425,7.894397792234503,0.3803975426166153,137.41095515979887,29.559843750000038,31.659843749999904
17100,17100.0,3.0233826,-8.44545655,-2.609277305,0.41831665,-0.3501426715,0.1488243095,-45.421676299999994,42.9290008,-122.96089450000001,9.34303876717123,0.5654794682557176,137.93284507483068,29.50798437500004,31.645984374999905
17200,17200.0,4.19564436,-8.7580849,-3.493276205,0.19140930550000002,-0.55376967,-0.261032867,-45.347975899999994,43.1631469,-123.5031115,10.329846010500656,0.6436734938552545,138.46538523679308,29.456125000000046,31.632124999999906
17300,17300.0,0.59625627,-14.02873595,-3.64387666,0.5970092739999999,-0.47360916049999996,0.722048185,-44.484100500000004,43.76388575,-124.4754023,14.673322852194548,1.1007593428300717,139.242001045081,29.404265625000047,31.61826562499991
17400,17400.0,-2.162036118,-7.23070369,1.86129152,0.449098205,0.7903823809999999,0.1826995825,-43.62869265,44.0515915,-126.5808122,7.816857983452874,0.9427336240579709,140.94947374539058,29.352406250000048,31.604406249999908
17500,17500.0,3.5551956,-10.8419933,0.487742615,0.451440424,0.0010208131000000002,0.1698135375,-42.101087,44.526109999999996,-128.27180736842107,11.426124181979695,0.4885740488853313,142.15746111094182,29.300546875000048,31.59054687499991
17600,17600.0,1.66209715,-10.2147127,0.91355135,0.6784469590000001,-0.220547487,0.10205840949999999,-41.7431644,44.3649292,-130.432742,10.408695071247607,0.7209608771390421,143.95648541273775,29.24868750000005,31.57668749999991
17700,17700.0,0.6890945390000001,-9.3015643,1.10472873,0.110659787,0.386007689,-0.0188415539,-41.830138,44.1448976,-132.01935,9.39297844029362,0.4044162272462479,145.35352294461177,29.196828125000053,31.56282812499991
17800,17800.0,1.79785614,-9.633647199999999,0.9121200509999999,0.286434939,0.332429505,0.204432675,-40.8801268,44.409791,-133.07465000000002,9.842549465076086,0.4852597158363494,146.12439660019612,29.144968750000054,31.548968749999908
17900,17900.0,2.14405826,-9.3257539,0.502229306,0.19886932300000001,0.49668732,0.321076969,-39.71191380000001,44.404906,-133.68469199999998,9.584552829190343,0.6242421982181778,146.35720517160343,29.09310937500005,31.53510937499991
18000,18000.0,2.105209325,-9.48160525,1.1364478999999998,0.20808029,0.158950805,0.305789945,-38.3956916,44.89685120000001,-135.26641999999998,9.780889580341448,0.4029232867189294,147.60450487314128,29.04125000000005,31.521249999999913
18100,18100.0,2.184516825,-9.54266725,1.274711625,0.0842399605,0.446037295,0.1768989575,-36.9366456,44.891662,-136.20361200000002,9.87323331616493,0.4880646190368164,148.09128896399562,28.989390625000052,31.507390624999914
18200,18200.0,2.3688736,-11.03783825,1.26663205,0.008083343450000002,0.103290557,0.238147735,-35.792542,45.6085196,-136.891786,11.361377203297215,0.2627789568363249,148.66292583548045,28.937531250000053,31.493531249999915
18300,18300.0,1.54555895,-10.65806175,-2.15737535,-0.94346616,0.04043579025,-0.5538749825,-36.6452028,46.1172484,-135.18768799999998,10.984909326707657,1.0948955680416268,147.46399181265124,28.885671875000053,31.479671874999923
18400,18400.0,-1.348731975,-10.89118975,0.37869262375,-1.6047325000000001,-0.036792755249999996,-0.729648575,-40.166626,46.7730724,-128.748776,10.987193269895025,1.763259086026001,142.75032073817854,28.833812500000054,31.465812499999924
18500,18500.0,1.4243583750000002,-9.6934925,0.280227675,-0.90298843,0.0585441575,-0.6907691975,-42.8631592,45.68634,-123.44390800000001,9.813399191445892,1.1487338980873625,138.4310816360277,28.78195312500005,31.451953124999925
18600,18600.0,1.4399510684210526,-7.641693157894736,-0.9772210052631578,0.13453995157894735,-0.4625348421052632,-0.7701110926315788,-46.207886,44.2047118,-122.319946,7.840710586611233,0.9107306012946309,138.02708466895956,28.73009375000005,31.438093749999922
18700,18700.0,1.90858764,-8.033963,-2.16575016,-0.0951446532,-0.39845581,-0.0010559079999999943,-47.40814279999999,43.034974,-121.68273899999998,8.546561200778125,0.4119328959620487,137.49993284111065,28.678234375000052,31.424234374999923
18800,18800.0,2.89786988,-8.21279904,-1.65530398,0.286010742,-0.32814635600000003,0.271649172,-47.1923824,43.48663320000001,-121.2539696,8.86547739118873,0.5140539352815756,137.18878612812196,28.626375000000053,31.410374999999924
18900,18900.0,5.14458926,-9.7031952,-4.20274356,0.28813780600000005,-0.56654664,-0.16553039279999998,-46.535644399999995,43.883362,-121.951904,11.760103665129796,0.6606121723129474,137.7085238516956,28.574515625000053,31.396515624999925
19000,19000.0,-0.3608764624,-12.569775199999999,-2.7891998060000005,0.74769594,-0.757012928,0.74398802,-46.03637620000001,43.7924196,-123.5916124,12.997612353592135,1.3237141375919157,138.9681964404141,28.522656250000054,31.382656249999922
19100,19100.0,-1.993011528,-7.3772338,2.26423948,0.34501648,1.03113098,0.04475097800000001,-45.2841182,43.70056200000001,-125.238954,8.073933133348067,1.0917486445103772,140.16167840314336,28.47079687500005,31.368796874999923
19200,19200.0,3.87158812,-10.7147458,1.15141602,0.585552968,0.21599731600000002,0.29381104,-43.4259034,44.2117308,-127.6348904,11.451720110140492,0.6981106238749293,141.8849015982425,28.41893750000005,31.354937499999924
19300,19300.0,2.6792785400000003,-10.5059634,1.204571506,0.573410028,-0.10315856799999996,0.22754517,-42.537917900000004,44.039917200000005,-129.691772,10.922308363950712,0.6384535394376873,143.41883089210185,28.367078125000052,31.341078124999925
19400,19400.0,0.6729980545,-9.26415465,1.118138875,0.1921058635,0.243270111,-0.11360321300000001,-42.6743315,43.3512119,-131.163254,9.356908235059473,0.33080423651393875,144.58296980394047,28.315218750000053,31.32721874999993
19500,19500.0,1.24364853,-9.82979205,0.616374215,0.42086868,0.1472335825,0.1464294415,-42.06771895,43.25965890000001,-132.8225705,9.927323458406251,0.4693552578325215,145.88688249336158,28.263359375000054,31.31335937499993
19600,19600.0,2.1657837200000003,-9.270978625,0.5724410805,0.181667324,0.38367156950000003,0.34638367,-40.97335815,43.0667885,-134.4533505,9.539575400702232,0.5480499900481162,147.00797287769728,28.211500000000054,31.299499999999927
19700,19700.0,1.84711911,-9.589468375,2.5258712450000003,0.09671325495,0.307613362,0.290615081,-39.087295000000005,43.31306435,-134.8344375,10.090494655221486,0.43542061165675977,146.91564050917862,28.15964062500006,31.285640624999928
19800,19800.0,2.671553845,-10.02653655,1.799587305,-0.05493545495,0.5966629099999999,0.293111417,-37.732619799999995,43.37676995,-136.1527245,10.534312494039693,0.6671379890538525,147.7936875220113,28.107781250000055,31.27178124999993
19900,19900.0,2.74344334,-11.5175757,0.74733961,-0.2639305115,-0.3759796235,-0.13282470425,-36.930313899999994,43.46565245,-135.908431,11.866093755757461,0.481126543531622,147.39150462487905,28.055921875000056,31.25792187499993
20000,20000.0,0.64707487,-9.3906278,-1.304441845,-1.68079376,-0.169531249,-1.006669575,-39.571076,43.64517205,-131.2951655,9.504994032528618,1.966737814232666,143.9081288067112,28.004062500000057,31.244062499999927
20100,20100.0,1.4266357509999998,-11.4055905,0.175056457,-1.41851809,0.0777191134,-0.6341476450000001,-42.37762465,43.0470277,-124.9773401,11.503848049473325,1.5563951512550216,138.81018983759108,27.952203125000057,31.230203124999928
20200,20200.0,1.70854954,-8.07705073,0.6305618295000002,-0.323963937,0.015716552200000008,-0.87713624,-45.23826575,41.2828074,-122.58621299999999,8.282168397571844,0.9393269985638432,137.03369744685438,27.900343750000058,31.21634374999993
20300,20300.0,-0.0023422247000000067,-7.61089627,-1.51955107,0.27055817,-0.530862429,-0.198664853,-47.0932755,40.55625915,-121.61285349999999,7.7632750433604,0.6305436327864109,136.57334541626398,27.848484375000066,31.20248437499993
20400,20400.0,4.38885342,-9.210467199999998,-2.42109074,0.0897781373,-0.466845695,0.15233459400000002,-46.759033,40.3315734,-120.50163225,10.486681255729822,0.4994784203193377,135.40196148379405,27.796625000000066,31.188624999999927
20500,20500.0,2.67125087,-8.79268055,-2.4765113700000003,0.586032888,-0.362928012,0.1455795292,-46.69937095,40.71037329999999,-121.5876004,9.518425991241324,0.7048511352926178,136.46162109565188,27.744765625000067,31.174765624999928
20600,20600.0,2.66520771,-8.144989299999999,-1.9095168999999999,0.31513597,-0.4934722775,-0.037812805200000014,-46.28349375,40.899581299999994,-122.13149985,8.782814402845327,0.5869302438743024,136.86146196982335,27.692906250000068,31.160906249999933
20700,20700.0,1.810056295,-15.423418599999998,-4.09003514,0.540544888,-0.2764831545,0.5663627720000001,-45.3292849,41.4350891,-123.6949166,16.070424235830252,0.8357190884470509,138.1021400527114,27.641046875000068,31.147046874999933
20800,20800.0,-3.21321646,-6.636521685,3.448946355,0.34405898799999995,0.56662675,0.2968475355,-44.65301510000001,41.68983425,-125.5317666,8.143245644810678,0.7350503836919016,139.60738852198514,27.589187500000065,31.133187499999934
20900,20900.0,3.5186767999999997,-10.63382,0.17098999,0.49969482,-0.044784545999999995,0.07437134,-43.3589929,41.98257495,-126.901017,11.202162817596363,0.5071801109158895,140.52225488321355,27.537328125000066,31.119328124999942
21000,21000.0,2.2389832000000003,-10.12146,-0.23602295,0.6158142,-0.022415161,-0.093948364,-43.71925405,41.70372015,-128.7571725,10.368833354549052,0.6233424929062452,142.22864464280818,27.48546875000007,31.105468749999943
21100,21100.0,0.9185790999999999,-9.281097,1.3668976000000002,0.15562439,0.23324585,0.12655639999999999,-43.79661525,41.1123656,-129.9697865,9.426078619195343,0.30763468544046624,143.18005350823478,27.43360937500007,31.091609374999944
21200,21200.0,1.4046020000000001,-9.161392,0.7623595999999999,0.22592163,0.5134125,0.31510925,-42.79747025,41.20521575,-131.95533500000002,9.299742056411032,0.643371445973218,144.71260132445337,27.38175000000007,31.07774999999994
21300,21300.0,2.442848215,-9.7097739,0.7305145399999999,0.18006744700000002,0.412001797,0.396661374,-41.2130736,41.614762,-133.568342,10.039200133833603,0.5998284590574472,145.84516714765826,27.329890625000072,31.063890624999946
21400,21400.0,1.620026365,-9.3839231,1.233531995,0.1558906555,0.4873626705,0.2112441985,-39.7899629,41.99005075,-134.5599355,9.602725418438023,0.5535872800348426,146.4678230400404,27.278031250000073,31.050031249999947
21500,21500.0,2.99913558,-12.1803534,1.2681861840000002,-0.08034515375000001,0.11090698395,-0.1090675365,-39.0704341,42.1767438,-134.92042450000002,12.611828536595777,0.17800858651682647,146.65917358729203,27.226171875000073,31.036171874999948
21600,21600.0,1.6360030950000002,-10.5057337,-1.1988509699999998,-1.40115738,-0.3352233925,-0.65982054,-40.65246645,42.0149994,-132.605438,10.699781424677132,1.5846126930811433,144.92150099735233,27.17431250000007,31.02231249999995
21700,21700.0,-0.9973724735,-10.98738395,-0.27601547400000004,-1.576615905,-0.2977294955,-0.5863120985,-43.3779916,41.6300975,-126.445848,11.041796439192133,1.708266446115436,140.0119941654321,27.12245312500007,31.00845312499995
21800,21800.0,1.12004854,-8.990386399999998,-0.197655483,-0.653876475,0.303128813,-0.718611885,-45.5231476,40.435104100000004,-122.0877061,9.063145880991321,1.0190621902454569,136.42915291123558,27.07059375000007,30.994593749999947
21900,21900.0,0.7868949965,-8.2358528,-1.942733775,0.0805641205,-0.6251396324999999,-0.43211898600000004,-47.694015,39.487228,-121.0432425,8.499735081953268,0.7645351561976695,135.961279861784,27.018734375000072,30.980734374999948
22000,22000.0,2.2212058850000003,-7.631185885,-2.077707655,0.1141754185,-0.0417510975,-0.15946120849999998,-48.24806235,38.82850645,-121.26747175,8.214995636800293,0.20187479267218394,136.16659064835966,26.966875000000076,30.96687499999995
22100,22100.0,3.10944973,-9.34968415,-3.13307194,0.379531863,-0.227696226,0.3652359025,-47.99575775,38.95530725,-121.397093,10.342466970172694,0.5739977919383751,136.22909132697802,26.915015625000077,30.95301562499995
22200,22200.0,3.636237325,-8.840016835,-3.69462348,0.06688079849999999,-0.272270201,-0.170320131,-47.1849071,39.4825747,-121.70493975,10.250397020045918,0.32956336284133936,136.37233904305302,26.863156250000078,30.939156249999947
22300,22300.0,0.985142513,-12.3426805,-2.96913145,0.756951906,-0.11125641,0.67858276,-46.456756799999994,39.89334085,-123.570175,12.75282123124765,1.0249946210217298,137.91100627011528,26.811296875000075,30.925296874999948
22400,22400.0,-1.37207333,-6.9110716,2.7512236800000003,0.108854673,1.2345931959999998,0.106538393,-45.352019,40.2459715,-125.493624,7.571412258438072,1.2498309284033815,139.37432039565616,26.759437500000075,30.91143749999995
22500,22500.0,4.166917519999998,-10.9170591,0.3906539961,0.5317642300000001,0.19851837190000002,0.238516235,-44.0011609,40.503998200000005,-128.108219,11.693906642693205,0.619911990927875,141.38039487513473,26.707578125000076,30.897578124999953
22600,22600.0,2.11603701,-9.8050617,0.729075623,0.6120804,-0.02028351,0.0441101075,-43.981628799999996,40.1916512,-130.14236200000002,10.059933553119098,0.6174415474115849,143.13237414784726,26.655718750000077,30.883718749999954
22700,22700.0,0.8686661,-9.117689100000002,0.8876953040000001,0.188104245,0.279699707,0.043681335300000006,-43.9595039,39.961242600000006,-131.620939,9.201900640606793,0.34082658071557725,144.4071474657906,26.603859375000077,30.86985937499995
22800,22800.0,1.10389249,-9.4778949,0.07570343,0.296020507,0.423930353,0.22755585,-42.9025261,39.7239685,-133.067165,9.542491380909699,0.5650506331819427,145.34658574962575,26.552000000000078,30.855999999999952
22900,22900.0,3.20946965,-9.6514833,1.15703885,0.17670440399999998,0.182228095,0.430274965,-41.592255,40.2139286,-134.106296,10.23689251935204,0.4997609468690506,146.0534314020828,26.500140625000075,30.842140624999963
23000,23000.0,1.46123195,-9.502804199999998,0.81897432,0.17138366300000002,0.192880255,0.151704409,-40.424959,40.2381902,-134.827728,9.649517539378197,0.3003412657074879,146.39613154209806,26.448281250000075,30.82828124999996
23100,23100.0,1.84729155,-9.596765,1.5203643999999998,0.086585997,0.375256348,0.42057799999999995,-38.9633185,40.39039625,-135.9840375,9.891363851080254,0.5708158635763346,147.10955867175667,26.396421875000076,30.81442187499996
23200,23200.0,1.7855789199999998,-12.07148335,0.12077559550000001,-0.0201492305,-0.384123227,-0.08898773239999999,-38.209534000000005,40.813446500000005,-136.1759225,12.215872576001143,0.4037109408093785,147.2060185659955,26.344562500000077,30.800562499999963
23300,23300.0,1.350737038,-9.50345405,-0.997917195,-1.701563225,-0.046968078600000004,-0.719996645,-40.02685425,41.42608625,-133.18481250000002,9.659704301231557,1.8485492354357411,145.10877488633605,26.292703125000077,30.786703124999963
23400,23400.0,1.058524295,-11.692413900000002,-0.08788833800000001,-1.501725035,-0.2577339145,-0.5735336475,-42.23594625,41.36466975,-126.81655900000001,11.746069411834386,1.6283761566495236,139.9192812126548,26.240843750000078,30.77284374999996
23500,23500.0,1.197563925,-8.1283503,-0.111286927,-0.27102508454999996,0.16944122350000002,-0.5931312595,-44.41413900000001,40.72647,-124.1455075,8.217021287567855,0.686626088571196,137.99789046318452,26.188984375000075,30.75898437499996
23600,23600.0,0.1796058672,-8.38243705,-0.368785105,0.4627861025,-0.469552617,-0.21874923850000003,-45.62950125,39.881897,-124.16953999999998,8.393574385373128,0.695456076951344,138.16952884038994,26.137125000000086,30.745124999999966
23700,23700.0,2.7905479250000003,-8.458571699999998,-3.679183165,0.2553199785,-0.2323783836,-0.2112365745,-46.4859,39.8407,-124.54071,9.63761269674758,0.4201183874494547,138.77538947019426,26.085265625000087,30.731265624999967
23800,23800.0,3.90630492,-9.7197144,-2.72312314,-0.0186584470532,-0.378424066,0.1014190672,-46.65641775,39.51110825,-124.7680675,10.827182188112369,0.3931135771173681,138.9426440149136,26.033406250000088,30.717406249999968
23900,23900.0,1.7084320759999998,-6.96422726,-1.86671146,0.488613888,0.148031618,-0.11120910519999999,-46.949386499999996,39.324189,-124.9935135,7.472658505267672,0.5335566536436093,139.19066762263216,25.981546875000085,30.703546874999965
24000,24000.0,4.25633526,-15.7842282,-6.8799288,0.379321286,-0.693316646,0.451678486,-45.331955,39.918136499999996,-127.5676735,17.753026092218217,0.9193435241196284,141.1452800055875,25.929687500000085,30.689687499999966
24100,24100.0,-2.92723082,-6.6012633,1.90176082,0.359088124,0.6691619879999999,0.354321292,-44.612503,39.87655625,-129.82139750000002,7.532344339559579,0.8619350386334484,142.948056683992,25.87782812500009,30.675828124999967
24200,24200.0,3.6290527,-10.8897584,-0.13091430599999998,0.6347748000000001,-0.16132202199999998,0.172799685,-42.869568,40.042114500000004,-132.070925,11.505971467046376,0.6876197795448036,144.51280185212133,25.82596875000009,30.661968749999968
24300,24300.0,1.87722168,-9.885391199999999,0.340264888,0.5778900339999999,-0.029235842,0.097164919,-42.4930575,39.88456675,-134.6702575,10.07065478832755,0.6058171384858091,146.7396847908255,25.77410937500009,30.648109374999965
24400,24400.0,0.8249664360000001,-9.2248352,1.17080386,0.19865723,0.234960938,0.0522003176,-42.27752725,39.133072,-136.17400750000002,9.342296543942279,0.3134580437335949,147.85877448318297,25.72225000000009,30.634249999999966
24500,24500.0,1.319007875,-9.408287,1.0053710999999999,0.2474975625,0.2425651525,0.2671813975,-41.04042025,39.366914,-137.41341,9.553555335341807,0.4389124238837711,148.71637271306258,25.670390625000092,30.620390624999967
24600,24600.0,2.05103685,-9.4564705,1.108016975,0.127658845,0.3890495275,0.2767601125,-39.681625,39.48288025,-138.692855,9.744374872433523,0.4958348136544304,149.5637590292239,25.61853125000009,30.606531249999968
24700,24700.0,1.421661325,-9.79555125,0.93024825,0.216335295,0.24337387,0.21284485,-38.39416525,39.45770275,-139.8872375,9.943346767419238,0.3890265111064377,150.33123568478047,25.56667187500009,30.592671874999965
24800,24800.0,2.204864525,-10.2238085,1.4584694,0.0016899109999999988,0.4558906575,0.276233675,-36.56219400000001,39.8159788,-141.106876,10.561041212602671,0.5335093521077796,151.1070322868219,25.51481250000009,30.578812499999966
24900,24900.0,2.367671975,-11.14558025,0.4813346675,-0.1730117775,-0.21815872,0.0658454915,-35.7626344,40.284424,-140.85449,11.410497487638047,0.2918689844526836,150.8039144317524,25.46295312500009,30.564953124999967
25000,25000.0,1.854114575,-9.68152275,-1.1066132,-1.651599875,-0.2104377775,-0.75681305,-37.5784296,41.952821,-138.860776,9.926038541325893,1.829218071971442,149.84865028574325,25.41109375000009,30.551093749999968
25100,25100.0,-0.021442424999999987,-11.14946775,0.680950175,-1.4798241,-0.24718475,-0.8239173750000001,-40.8502196,43.459472999999996,-132.416078,11.185259471550063,1.7119846349306271,145.2297457250329,25.359234375000092,30.537234374999976
25200,25200.0,0.244258117,-8.905682400000002,-0.49005432299999996,-0.524978635,0.287683105,-0.9732131890000001,-44.1333006,43.766174400000004,-128.816526,8.922717610633391,1.1482776004751685,143.02820879382455,25.30737500000009,30.523374999999977
25300,25300.0,1.196423312,-7.39589985,-0.925433355,0.21505890100000002,-0.540447991,-0.420773316,-47.1319576,42.9855346,-128.133846,7.560750241973896,0.7260621388509118,143.1346217329077,25.25551562500009,30.509515624999977
25400,25400.0,2.95677035,-8.15127,-2.85767978,0.384542845,-0.213945014,0.122514342,-47.547607799999994,42.9925536,-129.014284,9.131408983822254,0.4632375609395652,144.0620414684503,25.20365625000009,30.495656249999982
25500,25500.0,4.4187821,-10.016598599999998,-3.4769409,0.417561344,-0.601496885,0.27580718,-47.261353,43.0899044,-130.14190399999998,11.49135202241412,0.7852294240542494,145.0079192396733,25.15179687500009,30.48179687499998
25600,25600.0,1.3595962659999998,-6.92268991,-1.153240962,0.361538698,0.037245178500000004,-0.16383208959999998,-48.023071,43.1506352,-130.087896,7.285096231332671,0.4436616259490819,145.22761941356032,25.09993750000009,30.46793749999998
25700,25700.0,4.14009842,-12.6386,-5.95876601,0.324349978,-0.663385015,0.34206695299999995,-46.929321200000004,43.761596600000004,-132.622986,14.593868583255073,0.8274388977032076,147.3305893664587,25.048078125000096,30.45407812499998
25800,25800.0,-1.68918148095,-8.2195007,1.281185901,0.45857239,0.368327327,0.50089569,-45.871582399999994,44.0136718,-135.307918,8.601368153758937,0.7931091283462272,149.49820062270538,24.996218750000097,30.440218749999985
25900,25900.0,1.6452186775000002,-10.267861900000002,0.89063188,0.542845165,-0.118013762,0.1423767125,-44.53491079999999,44.013368,-137.26195800000002,10.458565764780117,0.5734825849137879,150.86883670954148,24.944359375000094,30.426359374999986
26000,26000.0,1.451227595,-9.900894099999999,-0.12667083759999995,0.481163015,0.285983274,-0.1710716245,-44.428406,43.267821999999995,-139.92736599999998,10.008507646060815,0.5983825922188941,153.05476559960047,24.892500000000094,30.412499999999987
26100,26100.0,1.77480698,-9.251050300000001,1.26435623,0.12584991474999999,0.49818420049999995,0.13940200925,-43.9068604,42.89032,-141.14684400000004,9.507691667630445,0.5349956037679733,153.9150225172469,24.8406406250001,30.398640624999985
26200,26200.0,1.89930951,-9.500577725,0.347507474,0.34012070000000005,0.2684021,0.360339357,-42.2399908,43.097534,-143.14819,9.697154117267637,0.5637837432005088,155.34808334453237,24.7887812500001,30.384781249999985
26300,26300.0,2.420470395,-9.340829600000001,1.405023975,0.06235046595,0.20635680850000002,0.2359146135,-40.802002,43.038940600000004,-144.56176399999998,9.751234220732114,0.32105399788677524,156.2539482093377,24.7369218750001,30.370921874999986
26400,26400.0,1.26011959,-9.35729035,0.96711962,0.1354774505,0.3188430775,0.15809555449999999,-39.926147,43.242798,-144.81598200000005,9.492287867723784,0.3808384632589661,156.31930542539664,24.6850625000001,30.35706249999999
26500,26500.0,3.10018008,-10.067111,1.6110992400000002,0.0565460204,0.41051635,0.30978698600000004,-38.1964108,43.616942,-146.024474,10.656632895567183,0.5211290882107188,157.11327649807092,24.6332031250001,30.34320312499999
26600,26600.0,1.91791692,-12.7395202,-0.39954832475999996,-0.1168731684,-0.4382904,-0.1037414552,-37.7554323,43.6828625,-145.601193,12.90327603230601,0.4821223341764996,156.63145347457785,24.5813437500001,30.32934374999999
26700,26700.0,0.489776636,-9.5442169,-0.552771012,-1.81491392,-0.260604862,-0.863488776,-40.9326932,45.207977,-141.15348899999998,9.614695563954657,2.02872473348739,153.76541344158326,24.529484375000106,30.31548437499999
26800,26800.0,1.53054198,-11.638666,-0.373690798,-1.36984254,-0.343267828,-0.56351928,-44.62928760000001,46.82456989999999,-134.51629599999998,11.746197837492723,1.5207992784642672,149.26200220239951,24.477625000000106,30.30162499999999
26900,26900.0,0.487860112,-8.5537352,-0.114874266,-0.27752075600000004,0.059619140399999986,-0.60143736,-47.2583774,46.5035236,-131.00044000000003,8.571009112967559,0.6740167489405545,146.82328145991258,24.425765625000103,30.28776562499999
27000,27000.0,1.21857604,-8.150552000000001,-1.102002,0.18352661399999998,-0.441699212,-0.30785522,-49.53948965,45.12397775,-130.7894915,8.317854855429847,0.5725825996037192,146.95659505012586,24.373906250000104,30.27390624999999
27100,27100.0,2.25531997,-8.6650689,-2.3770935,0.205207826,-0.184222415,0.144194029,-50.69038435,44.70581145,-130.083159,9.264116702697514,0.3116743049541554,146.5938786639424,24.322046875000105,30.260046874999997
27200,27200.0,4.5021621650000005,-9.92465665,-3.20232316,0.167116547,-0.15387115699999998,-0.040476225750000004,-50.260925,44.62433,-130.27802,11.360997287271186,0.24072997264921325,146.59418100635824,24.270187500000105,30.246187499999994
27300,27300.0,1.49833602,-7.458214555,-1.90023649,0.47125167799999995,-0.1095542885,0.009064482799999982,-51.51100255,43.69964595,-130.466229,7.854880769932544,0.5203100385061794,146.91659858479838,24.218328125000106,30.232328124999995
27400,27400.0,3.46212006,-13.75214665,-5.003598005,0.398287194,-0.544873053,0.4270675635,-50.31379645,43.81042435,-132.6022365,15.067841329612525,0.8251802930551663,148.43925010498072,24.16646875000011,30.21846875
27500,27500.0,-2.156647455,-7.50507355,2.590090195,0.4410057125,0.3794074942999999,0.28507309,-49.88556,43.97278,-133.62274,8.307800310291427,0.7430594758060768,149.25552292143027,24.11460937500011,30.204609375
27600,27600.0,1.795754255,-10.23680415,0.3591163665,0.3956703175,0.34420242450000005,0.021206665,-48.4624477,43.62602225,-136.21040050000002,10.425539647408952,0.5328913528081627,151.01364074564674,24.06275000000011,30.19075
27700,27700.0,1.96699603,-10.22267215,0.7914436295,0.6534645015,0.059397124998150024,0.09652252385,-48.18977345,42.726898299999995,-137.99240350000002,10.441569774682831,0.6702408920622073,152.28208859381448,24.01089062500011,30.176890625
27800,27800.0,0.7342288405263158,-9.160819736842106,0.5991732978947368,0.14664820578947368,0.31314729315789475,-0.10555709210526316,-48.6225127,41.7613982,-139.5995325,9.212568127495132,0.3636516217817326,153.61059070894868,23.95903125000011,30.16303125
27900,27900.0,1.80204775,-9.363097999999999,0.71746825,0.32712555,0.264678955,0.277297975,-47.66822795,41.756896999999995,-140.863952,9.565964014393344,0.5067584798515193,154.46222122303357,23.90717187500011,30.149171875
28000,28000.0,2.65138245,-9.5049515,0.7569656499999999,0.14070129199999998,0.20768738,0.42910004,-45.7114415,41.631468700000006,-142.124558,9.897853681798658,0.500083037836561,154.99081764833463,23.85531250000011,30.1353125
28100,28100.0,1.5368805,-9.484604,0.9586792,0.18118286,0.27319336,0.150527955,-44.61189245,42.1382135,-142.3599245,9.659232749661996,0.361898135279832,155.0233586235219,23.80345312500011,30.121453125
28200,28200.0,2.3401336500000003,-10.03227975,2.329361,-0.032402038499999994,0.432991035,0.20592499,-43.23303189999999,41.5001675,-143.535612,10.562273046245346,0.483773371783428,155.54377177066203,23.751593750000108,30.107593750000003
28300,28300.0,1.27532195,-11.4915465,-1.5923462,-0.24652099,-0.32707977,-0.190353395,-43.17100535,41.86027555,-142.4858835,11.684698741666795,0.4657020785581315,154.65532523431918,23.69973437500011,30.093734375000004
28400,28400.0,-0.649685643,-9.70175385,-0.4332458619999999,-1.717921435,-0.2557571395,-0.7600051879999999,-45.24520031578948,42.98176047368422,-136.72910789473684,9.785767765621301,1.8968042315984333,150.29807601919202,23.647875000000113,30.079875000000005
28500,28500.0,0.9350403025,-11.39038645,-0.44922866450000004,-1.116845685,-0.1093956003,-0.64292681,-47.90215705263158,42.821542526315795,-130.5849552631579,11.439902685646969,1.2944507262923342,145.5365691311582,23.596015625000113,30.06601562500001
28600,28600.0,1.29866562,-7.7656217650000015,-0.125891877,-0.03596954290000001,-0.13911132569999998,-0.58626176,-50.074309,41.7153927,-128.143006,7.875899831646807,0.6198506773838139,143.76468084110715,23.544156250000114,30.05215625000001
28700,28700.0,1.027278105,-7.89880295,-2.048614515,-0.125983426,-0.527081307,-0.23552551649999998,-51.3974,40.921478,-126.586148,8.225586348308724,0.5920666690812393,142.61951199424388,23.492296875000115,30.03829687500001
28800,28800.0,2.800779685,-8.271582350000001,-1.74544602,0.1513511685,-0.0663024888,0.163315582,-51.3951112,40.4573059,-126.5924074,8.906351171714961,0.23465377155276199,142.4917506343479,23.440437500000115,30.02443750000001
28900,28900.0,4.23862078,-9.913469500000001,-3.590663155,0.4079254125,-0.5269210649999999,0.023766326899999995,-50.626527,40.0041196,-125.918272,11.3638687693839,0.6692663693479382,141.48776883147582,23.38857812500012,30.01057812500001
29000,29000.0,1.3992713600000002,-7.705944875,-2.52032852,0.312101745,-0.038181303,-0.08611450385,-51.3470461,39.69589190000001,-125.969389,8.24291924162701,0.3998454230073197,141.7059504535633,23.33671875000012,29.99671875000001
29100,29100.0,2.84052275,-13.9797135,-4.16012575,0.370803835,-0.396850585,0.475967405,-49.7741683,40.00412,-127.06146499999998,14.899464534777994,0.7310190969079503,142.2057265701419,23.28485937500012,29.98285937500001
29200,29200.0,-2.566185,-7.21070865,2.6388092,0.39051056,0.68225861,0.23681641,-48.889009,39.7448732,-129.698028,8.144844803447425,0.8901522339949566,144.1922002701253,23.233000000000118,29.96900000000001
29300,29300.0,2.6541954050000003,-10.540622599999999,0.035957335999999986,0.42858733950000005,0.16129608099999998,0.1106330862,-47.6121519,40.0016783,-131.511539,10.897834334080729,0.4714955495346523,145.47292088479318,23.18114062500012,29.95514062500001
29400,29400.0,1.939048795,-10.004683,0.798807528,0.571598815,0.1296546945,0.04949340715,-47.051849,39.05059779999999,-133.50066999999999,10.2292182507435,0.5942128131408082,146.83766647264574,23.12928125000012,29.94128125000001
29500,29500.0,1.431661215,-9.073633599999999,0.893795772,0.213300326,0.273467256,-0.0466453567,-47.0355225,38.45932,-134.81186,9.232684549526091,0.3509295467890776,147.8705612196966,23.07742187500012,29.92742187500001
29600,29600.0,1.63301085,-9.4827548,0.36473923,0.3112487765,0.16129684700000002,0.2952522275,-46.358183200000006,38.19595380000001,-136.261898,9.63045536046296,0.4607491609100497,148.91382024338122,23.02556250000012,29.91356250000001
29700,29700.0,2.279329695,-9.45916185,0.888352955,0.22661895850000002,0.1245422383,0.3294425995,-44.891051899999994,38.3616639,-137.265775,9.770957406092,0.4192604292180416,149.4279718641699,22.97370312500012,29.899703125000013
29800,29800.0,1.259160575,-9.8833593,0.5064773625,0.17580871350000002,0.421965789,0.201876832,-43.273010299999996,38.458252,-137.77984700000002,9.977833085324331,0.5022763743106778,149.44867708763292,22.921843750000118,29.885843750000014
29900,29900.0,2.87739787,-10.3861398,1.805869285,-0.0580184954,0.4161590475,0.15223770074999998,-41.706847700000004,38.78478980000001,-138.519747,10.929095014469096,0.4474496897287201,149.77138619303548,22.86998437500012,29.871984375000014
30000,30000.0,1.87387314,-11.3267023,-1.812850165,-0.7056465104999999,-0.323880004,-0.4447349565,-41.9242861,38.600464200000005,-137.31384599999998,11.63345723472821,0.8977944745954471,148.6700508229574,22.818125000000123,29.85812500000002
30100,30100.0,-1.503572035,-10.0963265,0.5303596450000001,-1.78305666,-0.234293365,-0.6869262740000001,-44.1096494,39.1642764,-131.31088,10.251016786958363,1.9264359894238376,143.95213812091998,22.766265625000123,29.84426562500002
30200,30200.0,1.3073224631578948,-10.379155631578948,-0.19910068736842115,-1.0574935068421052,0.0693704745263158,-0.4984147042105263,-45.779115399999995,39.11827105,-127.11410749999999,10.469838983845051,1.1754722231372021,140.65561704172822,22.714406250000124,29.83040625000002
30300,30300.0,1.1659027,-7.7579042000000005,-0.557806396,0.169033812,-0.437222292,-0.555426024,-47.24617005,38.4197995,-125.633472,7.867967928107202,0.7332004365901579,139.61401076447794,22.662546875000125,29.816546875000018
30400,30400.0,1.377191175,-8.785911599999999,-1.89987638,0.103313448,-0.5847160415,-0.254050452,-48.323898,37.49717715000001,-125.5323785,9.094506028245119,0.6459569693904395,139.64103755519054,22.610687500000125,29.802687500000022
30500,30500.0,3.03589248,-8.65585405,-2.241053785,0.0183052061,0.08235549974999999,0.017965698500000002,-48.79631045,37.10449225,-124.87960825,9.443818319821457,0.08693649869912684,139.11414173452198,22.55882812500013,29.788828125000023
30600,30600.0,3.71009904,-8.8303329,-2.509137705,0.20749664199999998,-0.293042001,-0.017089080625,-48.43032835,36.75933834999999,-125.5125428,9.901283343386126,0.3609355605251374,139.46384463979163,22.50696875000013,29.774968750000024
30700,30700.0,1.7793609250000002,-8.885394699999997,-2.58617784,0.4741874765,-0.116099546,0.23675841949999998,-48.24409665,36.9215375,-125.82534779999999,9.439922673288576,0.5511594347619237,139.72372670949505,22.455109375000127,29.761109375000025
30800,30800.0,3.896669015,-13.76992715,-5.068661505,0.250689694,-0.436692815,0.29620362,-46.796644799999996,37.85537715,-127.214049,15.193605391878917,0.5866060855584788,140.73512357613902,22.403250000000128,29.747250000000022
30900,30900.0,-1.53391649,-7.408232825,1.604453228,0.42145919600000004,0.37813187049999997,0.26350021329999995,-46.22886675,38.026810100000006,-129.108347,7.845837115084249,0.6838169239706048,142.31001146221095,22.35139062500013,29.733390625000034
31000,31000.0,1.3167327919999998,-9.4846663,0.6163726784999999,0.4267265335,0.5105331485,0.209385682,-44.58068825,38.237992999999996,-132.018055,9.627435644761887,0.7073390092138065,144.49346926304324,22.29953125000013,29.719531250000035
31100,31100.0,1.9490386999999998,-10.212204,0.508331296,0.687820448,0.115008548,0.039419556000000015,-44.1767886,38.24890120000001,-133.00377,10.426145883199297,0.7044434432934693,145.27412063278817,22.24767187500013,29.705671875000032
31200,31200.0,1.049060024,-9.2751132,0.7173522940000001,0.145184326,0.32294311600000003,-0.006384276999999994,-43.80706765,37.59620630000001,-134.777525,9.36882602660388,0.3586610539125589,146.62031519731272,22.19581250000013,29.691812500000033
31300,31300.0,1.67898558,-9.4635378,0.82053526,0.24893493600000002,0.28118896,0.17023315600000002,-42.942657800000006,37.425841,-135.757297,9.646642719042962,0.4125527924244955,147.2236898496311,22.143953125000127,29.677953125000034
31400,31400.0,2.26244504,-9.5655306,0.832504288,0.11087341199999999,0.295040884,0.292105096,-41.6065977,37.7743527,-137.351686,9.868003390345002,0.43101174099293893,148.40323437580338,22.092093750000128,29.664093750000035
31500,31500.0,1.67544558,-9.6961309,1.30949099,0.08829803550000001,0.213066867,0.2492820735,-40.618286,38.058014,-138.504184,9.927424696395114,0.3398216612578564,149.27047902553855,22.04023437500013,29.650234375000032
31600,31600.0,1.844600695,-9.6999615,0.8779388404999999,0.0409400946,0.4835372995,0.291998295,-38.868714000000004,38.154754600000004,-139.08614749999998,9.91454537336532,0.567010670565376,149.37044342354937,21.988375000000133,29.636375000000033
31700,31700.0,3.572620375,-12.0768066,0.8413078199999999,-0.214936828,-0.248680881,-0.01735153425000001,-37.7667995,38.53012025,-138.8159195,12.625930919168546,0.3411076772470738,148.93207125582234,21.936515625000133,29.622515625000034
31800,31800.0,-0.13917084000000013,-9.70312775,-1.29946899,-1.49868775,-0.317813106,-0.7932365309999999,-39.3987276,39.4495393,-135.6391185,9.807984959629335,1.7256036343231986,146.65105405637732,21.884656250000134,29.608656250000035
31900,31900.0,0.447817994,-11.691699400000001,0.026139067999999988,-1.369153595,0.0807075476,-0.4634849475,-41.023101700000005,40.58036825,-129.8574075,11.7100983547842,1.4478027033764629,142.1008050747173,21.832796875000135,29.59479687500004
32000,32000.0,0.5471832145000001,-8.4760439,-0.01600036600000001,-0.2523208585,0.0906631481,-0.504076385,-42.09373445,40.5902867,-126.63627749999999,8.493855681575392,0.5811625267699412,139.48552448523859,21.780937500000135,29.580937500000037
32100,32100.0,1.27339634,-9.037904475,-1.767831405,0.252182768,-0.523730469,-0.280637358,-43.178599473684216,40.40551463157895,-127.16321442105264,9.297922875874164,0.6463245433046608,140.24081555232277,21.72907812500014,29.567078125000037
32200,32200.0,2.035290505,-8.4744261,-2.261698925,0.06655884100000001,-0.013835146499999978,-0.34109193,-44.815445000000004,40.03150895,-125.879901,9.005786263433265,0.3698107077210348,139.4872902846881,21.677218750000137,29.55321875000004
32300,32300.0,3.443923975,-8.77287025,-2.3899704,0.193704222,-0.611662285,0.0231796264,-44.73739655,39.941786799999996,-126.0476683,9.728480243676954,0.6421324000648638,139.5879529986102,21.625359375000137,29.53935937500004
32400,32400.0,2.4177077999999996,-8.380157400000002,-2.49328312,0.143473814,-0.20265350199999999,-0.07359771679999999,-45.0257876,39.6564468,-125.55328429999999,9.072170614364204,0.2599797244596277,139.1530937157769,21.573500000000138,29.525500000000036
32500,32500.0,1.67275236,-9.0500595,-1.64034422,0.65713959,0.039266967199999975,0.448056035,-44.358970619047625,40.12000666666667,-126.3653695238095,9.351572646585886,0.8064507647696787,139.80536974178355,21.52164062500014,29.511640625000037
32600,32600.0,2.30039368,-9.6756638,-2.64267888,0.186190797,0.31549072300000003,0.011940003349999992,-43.11134355,40.77568025,-128.4601625,10.303364903867823,0.4684443247198519,141.50359872936332,21.46978125000014,29.49778125000004
32700,32700.0,0.873931885,-8.896824500000003,-0.5098007339999999,0.47690429799999995,0.2735198978,0.409606934,-42.3345955,40.9901427,-129.7879055,8.984156090960857,0.6921611725371851,142.53882636711157,21.41792187500014,29.483921875000046
32800,32800.0,1.162432829,-9.91640145,1.41501621,0.361849979,-0.058528137000000015,0.153616335,-41.4580537,41.1634065,-131.73171299999998,10.09700112471601,0.4128107284682898,144.1056580287178,21.36606250000014,29.470062500000047
32900,32900.0,1.49774017,-9.4604185,0.260534668,0.57554016,0.13438873099999998,-0.0293884285,-40.982056,41.175841999999996,-133.98743000000002,9.593176111165027,0.5939426850885174,146.03975580779706,21.31420312500014,29.456203125000048
33000,33000.0,1.38915865,-9.222320300000002,0.98896944,0.19013366899999998,0.306755055,0.1148483295,-40.8844,40.70282,-134.4574,9.380135107386836,0.3792245363388554,146.31146959166398,21.26234375000014,29.44234375000005
33100,33100.0,1.674791,-9.507105699999999,0.8457962000000001,0.394767763,0.141316226,0.30254822000000003,-39.819336,40.89203,-135.76965,9.691343272012396,0.517905467026218,147.2791074732744,21.210484375000146,29.428484375000053
33200,33200.0,1.97765814,-9.2955825,1.084022515,0.07167816099999999,0.21823577800000002,0.25258178600000003,-38.653564,41.078185999999995,-136.76605,9.565983302384607,0.34176258718436026,147.94075776321816,21.158625000000146,29.414625000000054
33300,33300.0,1.68292615,-9.70636725,1.03559115,0.08557510300000001,0.4106216425,0.1960678075,-37.582397,40.98053,-137.2757,9.905918633507946,0.4630874450278774,148.10961553469954,21.106765625000147,29.40076562500005
33400,33400.0,2.2871704,-9.940395,1.510547675,-0.000709533500000005,0.400493625,0.3337554975,-35.638428000000005,41.729735999999995,-137.98828,10.312143890682801,0.5218608673151536,148.49994557002128,21.054906250000144,29.386906250000052
33500,33500.0,1.4683456499999998,-11.348491625,-0.3772850250000001,-0.10617447149999998,-0.199245455,-0.044940948750000015,-34.85565,42.100525,-137.3825,11.459768624266069,0.2379245764190753,147.85574675489661,21.003046875000145,29.373046875000053
33600,33600.0,1.902297975,-9.593834,-0.9659500125,-1.4292259500000002,-0.1510467525,-0.66173174,-36.210632000000004,43.2312,-134.17816000000002,9.835683716562134,1.5827973468809624,145.5469860363485,20.951187500000145,29.359187500000054
33700,33700.0,-0.08968353274999996,-12.093979,-0.8318786599999999,-1.364776575,-0.1678161625,-0.6356353625,-38.908386,43.974304,-127.09656000000001,12.134693043427456,1.5163113209142214,140.0040623597866,20.899328125000146,29.34532812500005
33800,33800.0,0.94132995,-8.47155775,-0.09266662624999994,-0.5900688249999999,0.15841675154999998,-0.5930290225,-40.937805,43.68744,-123.68011499999999,8.52750669174181,0.8611860619123727,137.40912319924342,20.847468750000147,29.331468750000052
33900,33900.0,1.078392025,-7.92328265,-1.31581115,0.2682724,-0.2391967725,-0.6044731,-43.3762359,43.10203535,-122.93861175,8.107935372889784,0.7068005716953747,137.30694496254387,20.795609375000147,29.317609375000053
34000,34000.0,2.49923094,-8.1302034,-2.22033388,0.15177917400000002,-0.263156126,-0.092031858,-44.43130485,42.37335225,-122.8827666,8.791968321209787,0.3188339831153784,137.36745027120614,20.743750000000148,29.303750000000054
34100,34100.0,4.17086796,-9.1338532,-2.95057676,0.33031616199999997,-0.36414795200000005,0.099505614,-44.1418471,42.1875,-122.91122250000001,10.467407609809316,0.5020106799884356,137.24232893884633,20.69189062500015,29.28989062500005
34200,34200.0,2.13938594,-8.023187400000001,-2.65440674,0.27578124000000004,-0.5090270920000001,-0.096508792,-44.4333635,42.192230200000004,-122.59124950000002,8.732490663943956,0.5905780609969098,137.05153659971086,20.64003125000015,29.276031250000052
34300,34300.0,2.764028948,-12.919568,-4.50249024,0.31860350800000004,-0.396112064,0.69414063,-42.87292470000001,43.32733165000001,-124.243466,14.005572620802255,0.8757918736731125,138.38999413986278,20.588171875000146,29.262171875000053
34400,34400.0,-1.91185,-7.96643952,1.76265562,0.5261169640000001,0.41540832,0.222857668,-42.0933537,43.3356476,-125.3031945,8.400447160510867,0.7335838697687724,139.10700761351796,20.536312500000147,29.248312500000054
34500,34500.0,2.4027466,-10.4664706,0.24784545800000002,0.55147402,-0.0283813476,0.28826904600000003,-40.4888153,43.80081139999999,-127.72209175,10.746298604819849,0.6230416385803016,140.96378744849306,20.484453125000147,29.23445312500006
34600,34600.0,1.74852834,-10.19872755,-0.07794113250000004,0.5161026,0.022698975999999985,-0.018264008,-40.38223285,43.53058035,-129.7693605,10.348453408234024,0.5294155760341189,142.7085321757708,20.432593750000148,29.220593750000056
34700,34700.0,0.8917602739999999,-9.42827785,1.332598125,0.163230898,0.23191985899999998,-0.011447906630000004,-40.2921295,43.42643615,-131.2129165,9.563724472697812,0.2854993744495446,143.96577834788354,20.380734375000152,29.206734375000057
34800,34800.0,1.51899037,-9.5445207,0.5602256529999999,0.3149337775,0.15441895,0.23164978149999998,-39.5138551,43.23097185,-131.861045,9.680996052369382,0.4204371977303403,144.28306119109104,20.328875000000156,29.192875000000058
34900,34900.0,1.7864799800000002,-9.1315173,0.8795524450000001,0.218626407,0.1693359395,0.28438567800000003,-38.54003935,43.43421895,-133.1481905,9.346497147501443,0.3968201268388141,145.2594530437909,20.277015625000157,29.179015625000066
35000,35000.0,1.587705205,-9.45108145,1.0101013,0.1118354799,0.40113906899999996,0.2761314405,-37.37243655,43.71650685,-134.30503950000002,9.636600137413597,0.4999673105307035,146.10160697306662,20.225156250000158,29.165156250000067
35100,35100.0,1.802944925,-9.6037712,1.963761115,0.08354797655000001,0.485293579,0.272180175,-35.912247799999996,43.8206483,-135.14122,9.966935879217026,0.5631285370828609,146.53702769438596,20.17329687500016,29.151296875000067
35200,35200.0,1.739556095,-11.79728765,0.15692062250000005,-0.01253891020000001,-0.06113967795,0.038578796599999986,-34.673308850000005,44.36653095,-134.849013,11.928703658994547,0.08682732759713642,146.13315551864713,20.12143750000016,29.13743750000007
35300,35300.0,2.355477589473684,-10.03098947368421,-1.8812801631578948,-1.1359261,-0.08986543378947368,-0.4142536421052632,-35.257110299999994,44.64775095,-131.48735050000002,10.475189649750117,1.2124987693065667,143.26705005499633,20.06957812500016,29.123578125000066
35400,35400.0,-0.7432311899999999,-11.733839300000001,0.487747193,-1.60942076,-0.245370482,-0.710742187,-38.2408135,45.45662015,-124.85428,11.771092916118945,1.776420215021679,138.26525923266757,20.01771875000016,29.109718750000066
35500,35500.0,0.59835815,-9.1431963,0.2188797,-0.717582706,-0.051063537699999995,-0.676014695,-40.5497747,44.41650355,-119.8639715,9.165490769860137,0.9885735806688962,134.10627504511916,19.96585937500016,29.09585937500007
35600,35600.0,0.72034606,-7.3632202000000015,-1.174676516,0.379530333,-0.37053528,-0.31839753,-42.65968285,43.60557465,-119.95780925,7.492527089879748,0.6209951204764848,134.57778932141187,19.91400000000016,29.082000000000072
35700,35700.0,2.44572147,-9.242544699999998,-2.65440975,0.0251190183,-0.754574585,-0.0710449247,-42.64175460000001,43.7631242,-119.308319,9.922970509454814,0.7586872064037672,134.0448053954969,19.86214062500016,29.068140625000073
35800,35800.0,2.52413791,-8.653333900000002,-1.7205429200000002,0.20962067,0.238044736,0.061370849599999985,-42.68386810000001,43.785248,-119.913637,9.177530707410217,0.3263407088374217,134.60442455778087,19.81028125000016,29.05428125000007
35900,35900.0,5.39459757,-8.92472485,-2.61502147,0.1959426865,-0.2939018225,-0.517178348,-43.014528000000006,43.82354700000001,-119.52163840000001,10.752412538453731,0.6273869180540572,134.37343414225705,19.75842187500016,29.04042187500007
36000,36000.0,-1.07794574,-9.97883375,-1.563850425,0.685800175,-0.17820129215,0.637940966,-43.282318,43.7403865,-121.998593,10.161615153760176,0.9545720094721124,136.63938888000203,19.70656250000016,29.02656250000007
36100,36100.0,1.1614700100000004,-7.676146635,3.008001685,0.3432083175,1.1540084515,0.06849975529999999,-41.6162105,44.9214174,-121.4389038,8.377553786372339,1.2064555860209183,136.00470549797004,19.65470312500016,29.012703125000076
36200,36200.0,3.163800015,-10.6500441,0.660369106,0.5532287850000001,0.09647521949999999,0.545635987,-39.968414,45.73898320000001,-124.4416808,11.132361187734404,0.7839985856173659,138.4748369206007,19.602843750000158,28.998843750000077
36300,36300.0,1.460387387,-10.277869425,1.72111433,0.505241406,-0.4089958085,0.2576934785,-39.373626,45.705566499999996,-126.1802676,10.526013341194037,0.6993626714059743,139.85977350447232,19.55098437500016,28.984984375000078
36400,36400.0,0.3432601815,-9.2520002,0.7338073834999999,0.2793510475,0.2598335145,-0.252936565,-39.6925352,45.3364558,-127.789308,9.288767579421163,0.4589168213428289,141.2834216075677,19.499125000000163,28.971125000000075
36500,36500.0,1.8379517,-9.39003,0.97184753,0.24403381,0.41860962,0.110580444,-39.681855600000006,45.501709999999996,-129.053496,9.617443395934284,0.4970055824383642,142.47762358737802,19.447265625000163,28.957265625000076
36600,36600.0,2.0438538,-9.512131,0.6426544,0.20143127,0.21620178,0.30126953,-38.264922999999996,45.7176208,-130.297543,9.75043482080542,0.4219965591274438,143.2891282603643,19.395406250000164,28.943406250000077
36700,36700.0,1.5614166,-9.492981,1.278305,0.14176941,0.1703949,0.28634644,-37.1565256,45.8091737,-131.162264,9.705090094282564,0.3621149972846081,143.81461247213522,19.343546875000165,28.929546875000078
36800,36800.0,1.2441864,-9.809021000000001,0.7803191999999999,0.17692566,0.37387085,0.24693298,-35.886230499999996,46.6181949,-131.72927700000002,9.918356256470856,0.4817239855538008,144.26952947592488,19.291687500000165,28.915687500000075
36900,36900.0,3.1344147,-10.978591999999999,2.2276154,-0.15223694,0.13737488,0.09460449,-34.750366,46.7321779,-131.239927,11.632553811797187,0.2258272638184728,143.5806754590804,19.239828125000166,28.901828125000076
37000,37000.0,1.5350952,-11.080338000000001,-2.3752441,-1.0289612,-0.09484863,-0.51260376,-35.656737,47.2476194,-128.5928346,11.435566973346438,1.1534816983742977,141.5623489085379,19.187968750000167,28.887968750000077
37100,37100.0,-1.4911803999999997,-10.079559,0.996994,-1.5935516,0.005279541,-0.5797119000000001,-38.4266662,46.8931577,-121.77078,10.23792584735117,1.6957300676750826,136.02852630553193,19.136109375000167,28.874109375000078
37200,37200.0,1.0586395,-9.733597,0.071624756,-0.8404083000000001,-0.061828613,-0.5275116,-40.36972040000001,45.8000183,-116.200714,9.791259278307427,0.9941717035949844,131.26309027653886,19.084250000000168,28.860250000000075
37300,37300.0,1.26723866,-7.86636675,-0.8263137825,0.21500855,-0.5790160990000001,-0.5563834864999999,-42.0387265,44.85855120000001,-115.171663,8.011457579427415,0.8319836251595538,130.553124842382,19.032390625000172,28.846390625000087
37400,37400.0,2.33121263,-9.107642375,-2.7066032200000003,0.01404647815,-0.7356674175,-0.266459651,-43.5478214,44.468688,-114.83078200000001,9.783910674364128,0.7827136438056495,130.613957781396,18.980531250000173,28.832531250000084
37500,37500.0,1.569983675,-8.389250449999999,-1.744857745,0.06730118125000001,-0.00643692004865,0.00805587755,-43.88397305,44.3250271,-113.877027,8.712407900380715,0.07101145530449482,129.84025865008306,18.928671875000173,28.818671875000085
37600,37600.0,4.22257403,-9.42247795,-3.620227055,0.2041343705,-0.36420211,-0.103273771,-43.74656695,44.50798045,-113.7013225,10.941802720244088,0.4304848696482811,129.70260234856443,18.87681250000017,28.80481250000009
37700,37700.0,0.8359153765,-9.11194015,-2.099549865,0.5065177875,-0.0860588072,0.31479187200000003,-43.77388120000001,44.6658327,-114.094773,9.388630419277707,0.6032076507230073,130.11086063197425,18.82495312500017,28.79095312500009
37800,37800.0,3.61397473,-11.86647125,-3.82942425,0.1717544545,-0.333416749,0.16725845625,-41.96403535,45.930479999999996,-115.45356459999999,12.989226966712565,0.450303005632628,131.14923210318977,18.77309375000017,28.77709375000009
37900,37900.0,-0.373687747,-9.1836536,0.5376678699999999,0.558499144,0.068879699,0.54478304,-41.54541155,46.387483,-117.73407275,9.231790412543061,0.7833678541423647,133.1885153154463,18.72123437500017,28.763234375000092
38000,38000.0,0.88135072,-9.6894222,0.65581819,0.36760559,0.31900025600000004,0.027810669000000003,-40.84015,47.027435100000005,-120.06660349999999,9.758518878399784,0.4924413776736173,135.26085869793602,18.669375000000173,28.74937500000009
38100,38100.0,1.4473342500000002,-10.0644823,0.5332320899999999,0.505554207,0.052687072,-0.0645507813,-40.82283029999999,47.220840700000004,-121.8979641,10.183264046315413,0.5134913164796551,136.9505746764261,18.617515625000173,28.73551562500009
38200,38200.0,1.16518099,-9.3125824,0.917501832,0.145610046,0.31345979,0.029731750499999998,-41.4418028,46.9341281,-122.828372,9.430478902697589,0.3481836365608542,137.86604499851595,18.56565625000017,28.72165625000009
38300,38300.0,1.6564789,-9.4683213,-0.06879119850000001,0.34906769200000004,0.111175534,0.278678893,-40.918732299999995,47.39578090000001,-123.995972,9.612394345880832,0.4607410106356258,138.90906128070029,18.51379687500017,28.707796875000092
38400,38400.0,2.49062032,-9.467719699999998,0.37426299700000004,0.14752502039999998,0.230690003,0.350698855,-39.57664495,47.77267490000001,-125.2723675,9.798430252210489,0.4452727317015774,139.79167637265758,18.46193750000017,28.69393750000009
38500,38500.0,1.654111352631579,-9.727487105263158,1.4753835315789474,0.08155983315789474,0.1743204242105263,0.14574150842105266,-38.6475371,48.16116315,-125.6523145,9.977863578749243,0.2420679519470113,140.0058371481359,18.410078125000176,28.68007812500009
38600,38600.0,2.028887915,-10.1540774,1.67365573,-0.111013795,0.713149245,0.13695372949999998,-38.24699345000001,48.32260205,-126.163177,10.489860911969737,0.7347813493799211,140.4103389883654,18.358218750000177,28.66621875000009
38700,38700.0,1.873686235,-11.53924625,-1.04915621,-0.37616806399999997,0.1141525286,-0.23237533800000001,-38.49738955,48.0527499,-125.8696751,11.746636211317456,0.4588734875557419,140.1228224686017,18.306359375000177,28.652359375000096
38800,38800.0,-0.07022094850000005,-9.7441335,-0.963798529,-1.63291323,-0.12564315515000002,-0.7662834159999999,-41.4167022,47.43209885,-119.731672,9.80848429136582,1.8088459777391983,135.28098797993826,18.254500000000178,28.638500000000096
38900,38900.0,1.413108865,-10.76412455,-0.12817001449999998,-1.190559365,-0.0111709594,-0.39749450700000005,-43.53378285,45.4684458,-113.92921499999999,10.860019508960823,1.2554846121841443,130.16363051545284,18.20264062500018,28.624640625000094
39000,39000.0,1.336492165,-8.664464375000001,-1.078418715,-0.03692932165,-0.5550430304999999,-0.5600601185,-45.62767075,43.60343905,-111.36688075,8.836958542478664,0.7908608212553141,128.00695720782886,18.15078125000018,28.610781250000095
39100,39100.0,0.7253700225,-8.0414946,-1.456830595,0.2285850545,-0.4665802075,-0.33320083850000004,-47.10906925000001,42.54715,-111.17935220000001,8.20606857359448,0.6195145478755697,128.0250736260891,18.09892187500018,28.5969218750001
39200,39200.0,2.07713626,-8.4440856,-2.64674378,0.153695682,-0.05308837876,-0.0051025390000000006,-47.44102425,42.261658399999995,-110.5562574,9.091491122333506,0.16496507229619609,127.51231397487341,18.04706250000018,28.5830625000001
39300,39300.0,4.17996828,-9.6395114,-2.88664546,0.270874024,-0.36307984,-0.1197296132,-47.669067,42.172851,-110.39672879999999,10.896610799605273,0.4691453163468462,127.42971098089849,17.995203125000177,28.5692031250001
39400,39400.0,2.08168036,-6.838775699999999,-1.96343994,0.375485232,-0.24078979399999997,-0.102261353,-48.1149296,41.758117600000006,-110.4376232,7.42085071802853,0.4661336279501344,127.49627307283876,17.943343750000178,28.5553437500001
39500,39500.0,1.5427460000000002,-12.7378478,-2.57253112,0.7608978120000001,-0.16302185,0.66643372,-46.87042279999999,43.410340600000005,-112.90466200000002,13.106595079064885,1.0299034108987646,129.7258268694417,17.891484375000182,28.541484375000106
39600,39600.0,-2.39093012,-6.24788512,3.42878416,0.027783204,1.42655942,-0.043026736,-47.2683716,43.21045,-114.450376,7.578939444450912,1.4305667304274343,131.1500412946259,17.839625000000183,28.527625000000103
39700,39700.0,4.85847476,-11.5553468,0.7436798059999999,0.54230955,-0.018157959599999995,0.3839264,-46.5640256,44.3130488,-116.411133,12.56399422838884,0.676537771015106,132.97919867573194,17.787765625000183,28.513765625000104
39800,39800.0,1.60547788,-10.1841886,0.6709014799999999,0.623483272,-0.1536560057,0.0179046632,-46.3217164,44.1326902,-118.583068,10.345904989081696,0.6490949662085387,134.7417584039533,17.735906250000184,28.499906250000105
39900,39900.0,0.790966775,-9.0359351,0.97215042,0.18400192199999998,0.224464418,-0.11977997130000001,-47.385254,43.7869264,-120.361024,9.123337660517,0.3170673616384482,136.5629701146546,17.684046875000185,28.486046875000106
40000,40000.0,1.8500954571428567,-9.495372142857144,0.5855276928571429,0.2594015971428571,0.3222721671428571,0.26642064,-46.925353,43.8278196,-121.84326000000001,9.691703512600132,0.492250865892266,137.72671251163393,17.632187500000185,28.47218750000011
40100,40100.0,1.63109128,-9.39003185,0.69580381,0.182676702,0.20671996899999998,0.236822515,-46.4450076,44.020691,-123.138426,9.556856444791944,0.36394088474358494,138.77342411042403,17.580328125000186,28.45832812500011
40200,40200.0,1.53352966,-9.5639741,0.91726075,0.0978820828,0.393579102,0.160656734,-46.144714,44.2156984,-124.87365600000001,9.729663330906293,0.4364431554786339,140.27762014926822,17.52846875000019,28.44446875000011
40300,40300.0,1.9364351315789472,-9.448063815789473,1.1812792789473685,0.10891964368421052,0.6000382042105263,0.2824249263157895,-45.606078000000004,44.332276,-126.360474,9.717246108705645,0.6723777310672094,141.46465599592239,17.476609375000187,28.43060937500011
40400,40400.0,3.1432358789473684,-11.452198315789476,1.908548489473684,-0.07358590978947369,0.06292403421052631,0.17063020736842105,-44.871215,44.633788,-127.09106399999999,12.033681470117752,0.22101773435258731,141.9779722068092,17.424750000000188,28.41675000000011
40500,40500.0,1.8016012315789476,-10.445180631578948,-2.379596842105263,-1.2055142368421052,-0.20642651684210525,-0.576339722631579,-45.952453600000005,44.23584,-125.486452,10.86830263915424,1.352612806169678,140.7674081449467,17.37289062500019,28.40289062500011
40600,40600.0,-0.533982846,-11.031862,0.358213806,-1.64383086,-0.38897095200000004,-0.617100523,-48.5568236,42.57263,-118.25653,11.062048711411245,1.7986445731149925,134.7399800461552,17.32103125000019,28.38903125000011
40700,40700.0,1.622360235,-9.4541345,0.3636627165,-0.7884239140000001,0.1743942275,-0.6540657035,-50.9793084,39.955138,-114.36096200000001,9.604040051856149,1.0497498964970398,131.4299591988564,17.26917187500019,28.375171875000113
40800,40800.0,0.872128308,-7.350409,-1.2672058000000002,0.19439392,-0.756805416,-0.420983886,-52.21191279999999,38.1970216,-113.3587628,7.516407818499402,0.8914349538227107,130.5193902516097,17.217312500000187,28.361312500000114
40900,40900.0,1.36294552,-8.498187199999998,-2.24332282,0.213348388,-0.283618162,0.0850189206,-52.3498536,38.199464,-113.6096212,8.904318007409149,0.3781304647010066,130.79316713276793,17.165453125000187,28.347453125000115
41000,41000.0,4.0276916200000015,-9.6696744,-3.49261772,0.282806404,-0.1355438236,0.19750976399999998,-51.83940705263158,38.817956368421065,-114.62787684210528,11.047490409738895,0.3900210843938153,131.65758849455594,17.113593750000188,28.33359375000012
41100,41100.0,2.508331295,-7.018215185000002,-2.12193148,0.212396232,-0.18912811275,-0.4382377615,-52.5537112,38.280944,-114.88128600000002,7.76581014892133,0.5477164520652033,132.00401029283742,17.061734375000192,28.31973437500012
41200,41200.0,1.4031043929999998,-13.55983295,-4.311856865,0.725268565,-0.7705947775,0.606408685,-51.713561999999996,39.0835572,-117.41272079999999,14.393929155627914,1.2409566372000005,134.1179436062828,17.009875000000193,28.305875000000118
41300,41300.0,-2.08602752,-7.8175819,2.107719405,0.3329826365,0.8244743365,0.0791595443,-51.5924076,39.564514,-119.50012199999999,8.367648902055764,0.9279236216164176,136.04198672447137,16.958015625000193,28.29201562500012
41400,41400.0,1.912773115,-10.3159945,0.11112976,0.45442963,0.52832793,0.025367737,-50.8895876,39.8962412,-122.496032,10.540151128226123,0.7005695219418953,138.51630567670904,16.906156250000194,28.27815625000012
41500,41500.0,2.38742065,-10.5290755,0.99279785,0.6179428000000001,-0.2391891465,0.278892515,-49.9810792,40.3131106,-123.80889679999999,10.847332829777969,0.7499074225108225,139.47014479777928,16.854296875000195,28.26429687500012
41600,41600.0,1.6835327000000002,-9.2571565,0.57321931,0.231254575,0.48252105,-0.101402285,-49.74029520000001,40.1708988,-126.17340120000001,9.428896763014665,0.5492843392138786,141.44798070722376,16.802437500000195,28.250437500000118
41700,41700.0,2.27010345,-9.3714755,1.5745850000000001,0.191841125,0.30569458,0.15425873,-49.501647600000005,40.21789560000001,-128.669738,9.773693421987767,0.3961443219077164,143.6099492070944,16.750578125000196,28.23657812500012
41800,41800.0,1.7320098999999998,-9.5839615,0.25478364,0.14176940999999998,0.39676666,0.25652313,-48.6929316,40.429687200000004,-130.45288,9.754967500651926,0.4982630047950245,144.9949051663543,16.698718750000197,28.222718750000123
41900,41900.0,1.7511596999999999,-9.6246645,1.6182785,0.15508270000000002,0.128326415,0.23308563,-47.48687880952381,40.72156661904762,-130.81948285714284,9.921348287852672,0.3100243012023313,145.00725044456317,16.646859375000197,28.208859375000124
42000,42000.0,1.6553955000000002,-9.7814865,1.0275116,9.155269999999976e-05,0.46228028,0.22829437,-46.3259888,40.7662966,-132.95593799999997,9.975184503892953,0.5161956022297389,146.57858451987764,16.595000000000198,28.195000000000125
42100,42100.0,3.00453185,-10.5063325,1.58236695,-0.10218048,0.27532959,0.21284485,-44.97070340000001,41.559448,-134.16321000000002,11.042703128569247,0.36851795609445503,147.4765044771624,16.543140625000202,28.18114062500013
42200,42200.0,2.3149993650000003,-11.02353455,-2.332028175,-0.9768142679999999,-0.319201663,-0.463755795,-45.392762,41.6134644,-132.779848,11.503060283101613,1.1362894510858206,146.36522629846831,16.4912812500002,28.16728125000013
42300,42300.0,-0.3335281425,-10.286963900000002,0.555316912,-1.856290445,-0.3580772425,-0.5904121335,-47.62500978947368,41.825465105263156,-126.52411421052629,10.313135983705696,1.983976500224056,141.51283761600263,16.4394218750002,28.153421875000127
42400,42400.0,1.29919972,-10.6289112,0.07132951500000018,-0.9623290999999999,-0.154557034,-0.6592269949999999,-49.48387175,40.63224825,-122.75467,10.728388411238699,1.179901626350868,138.45010373892745,16.3875625000002,28.139562500000128
42500,42500.0,0.715731035,-7.940463435,-1.156541465,0.054788207035,-0.6169898975,-0.5832756135,-51.715851,39.55078175,-121.4656825,8.063021629453395,0.8527304284322019,137.81407144830635,16.3357031250002,28.12570312500013
42600,42600.0,1.001000225,-8.21549685,-1.909626015,0.1205696105,-0.317697907,-0.152056886,-52.806854,38.46626225,-121.16966,8.508522053419668,0.3738226375690909,137.6601567122159,16.2838437500002,28.11184375000013
42700,42700.0,3.08658828,-8.24015715,-2.03066024,0.1784736625,-0.04472656295,0.025200652984999995,-52.859497499999996,38.77716075,-121.61331125,9.031748309380124,0.18703708630663587,138.15790238131257,16.231984375000202,28.097984375000127
42800,42800.0,4.83735192,-10.03137275,-4.260862755,0.3164711075,-0.58700331,-0.01687393100000001,-52.57186899999999,39.014435,-122.1858985,11.925352737696675,0.6708863878941749,138.61934880378337,16.180125000000206,28.084125000000128
42900,42900.0,-1.613048565,-8.579479425,0.19774169875000006,0.5683471695000001,0.3755127,0.4651611185,-52.6302325,39.4229895,-123.4294915,8.742190073594884,0.8379892716883335,139.85404687170777,16.128265625000203,28.07026562500013
43000,43000.0,3.1921142600000003,-9.630890199999998,-1.0730377119999996,0.0716674792,1.03517758,0.196655276,-50.604705700000004,40.662232,-124.88251000000001,10.346738162474546,1.069160383953038,140.74804316296746,16.076406250000204,28.05640625000013
43100,43100.0,1.5832092799999995,-9.4623322,-0.47400512,0.56488952,0.31570434399999997,0.42866821,-49.2970278,40.9523001,-128.086088,9.632976324501783,0.7780343309451259,143.22504210009947,16.024546875000205,28.042546875000127
43200,43200.0,0.7002288999999999,-9.6541136,1.3609069999999999,0.483502196,-0.20819396399999998,0.31895142,-48.023834,41.3810731,-130.28671500000002,9.776248357419645,0.6273350135229002,144.89083897125803,15.972687500000205,28.028687500000128
43300,43300.0,2.06779782,-9.609817800000002,-0.2252533044,0.40382385200000004,0.20214233,-0.186837768,-48.0339049,41.284485499999995,-132.054599,9.836950745432766,0.4988316737564931,146.45868076663774,15.920828125000204,28.01482812500014
43400,43400.0,1.12256774,-9.5470978,1.1502136479999998,0.204833984,0.146749878,0.164483644,-47.769166,41.07315060000001,-133.924554,9.682812001518926,0.3046479131069172,148.00278602831384,15.868968750000207,28.000968750000137
43500,43500.0,1.74841612,-10.1521086,-0.212561036,0.3916748,0.101577758,0.284008792,-46.6917416,40.7693479,-135.289005,10.30717544310569,0.4944148227904422,148.81325916791513,15.817109375000207,27.987109375000138
43600,43600.0,2.16739504,-9.575818,1.050375392,0.009252929699999999,0.208746338,0.129119874,-45.5577086,40.9117129,-136.650087,9.876607798472607,0.2460235692567888,149.7416886571865,15.765250000000208,27.97325000000014
43700,43700.0,1.05833195,-9.74015747368421,0.32226722947368425,0.0973615152631579,0.30602304684210524,0.1473589436842105,-44.8773192,41.1924744,-136.996159,9.803536719438094,0.3560276632384852,149.92927952795202,15.713390625000207,27.95939062500014
43800,43800.0,2.18265987,-9.785191225,1.433577715,-0.02435684205,0.465690603,0.3008422925,-43.1384275,41.4245606,-138.345643,10.129314547690171,0.5553145744572555,150.71981669797717,15.661531250000207,27.945531250000137
43900,43900.0,2.50551615,-11.96254475,-0.30311890500000005,-0.1236930858,-0.403569799,-0.018476868499999983,-42.2508248,41.5808104,-138.328402,12.242204246927376,0.42966793310093204,150.49533028825275,15.60967187500021,27.931671875000138
44000,44000.0,0.8402328400000001,-9.49645965,-1.118524155,-1.551575445,-0.37586670200000005,-0.7357208304999999,-43.713532,42.006379,-134.082944,9.611403305775935,1.7591033379774217,147.15244103268532,15.55781250000021,27.917812500000142
44100,44100.0,-0.028858947,-11.5778563,-0.263913721,-1.192265365,-0.229973598,-0.6865562475,-45.8714294,42.156982899999996,-128.83880200000002,11.582109676238634,1.3953227168145568,143.11143121912218,15.505953125000213,27.903953125000143
44200,44200.0,0.40759505799999995,-8.666565925,-0.181614684,-0.2329345685,-0.05000763150000001,-0.66685257,-47.7259822,41.0877981,-126.50955049999999,8.680343544163938,0.7204107909280145,141.31777078853816,15.454093750000212,27.890093750000144
44300,44300.0,0.570045483,-7.68967454,-1.35405504,0.20376205449999998,-0.52627563,-0.36910552399999996,-49.092713,40.1448072,-125.58563000000001,7.830751494566648,0.6758960133815892,140.68922367310518,15.402234375000212,27.87623437500014
44400,44400.0,2.6102704263157896,-8.638254842105264,-2.5958284052631577,0.2864235315789473,-0.21859339999999997,0.03836942970526315,-49.391936,39.861602500000004,-125.31570320000002,9.392606528930656,0.3681665503175591,140.47255272569737,15.350375000000213,27.862375000000142
44500,44500.0,3.95814198,-10.116548,-3.43635102,0.377941895,-0.474836734,0.147760007,-49.0159609,40.108033,-125.93796,11.39506093399491,0.6258236897332788,140.9668888952595,15.298515625000212,27.848515625000147
44600,44600.0,1.65527498,-7.28397679,-2.28090974,0.30816344900000003,0.13130340399999996,-0.19578705,-48.996583,39.674377,-126.37496750000001,7.885316288619081,0.4689938558183219,141.2280457600754,15.246656250000214,27.834656250000148
44700,44700.0,3.78480221,-13.8675478,-5.6580597899999985,0.265975951,-0.6298293979999999,0.454985054,-47.3008721,40.306244,-128.147886,15.528193203551071,0.8220842425867003,142.42140672869195,15.194796875000215,27.82079687500015
44800,44800.0,-2.56474611,-8.39248172,1.20731507,0.446861275,0.2186599723,0.436123648,-46.0354605,40.65704355,-130.8970645,8.974895088127266,0.7614982274478529,144.590170723301,15.142937500000215,27.80693750000015
44900,44900.0,1.4396835,-9.964878599999999,-0.2576873785,0.68963472,0.07452392499999996,-0.003819274699999986,-44.97909525,40.6802367,-132.2603635,10.144698639225153,0.7271290012720658,145.50208233142934,15.091078125000214,27.793078125000147
45000,45000.0,1.73529815,-9.5270955,-0.5026740975,0.3287200925,0.2841148375,-0.08702087425,-44.915923799999995,39.93431055,-133.95996100000002,9.698069449948946,0.4496879287350258,146.8246796068192,15.039218750000215,27.779218750000148
45100,45100.0,1.6586876000000002,-9.7569465,0.4463157675,0.3143386825,0.228984835,0.2083282475,-44.48738095,39.808502000000004,-135.125959,9.916182227044512,0.4414230757593716,147.72591194638764,14.987359375000215,27.76535937500015
45200,45200.0,2.54813385,-9.2206385,1.06372835,0.1263160725,0.38478850000000003,0.27702713,-42.87704465,39.7843942,-137.143787,9.625993142051248,0.4907166829793057,149.09622224636578,14.935500000000218,27.751500000000156
45300,45300.0,1.553051025,-9.166775,1.525512675,0.185977935,0.223659515,0.11325073,-41.87294015,39.81597895,-138.1881715,9.42285088090532,0.3127204441979944,149.78210311525092,14.883640625000217,27.737640625000157
45400,45400.0,2.363781,-10.169052125,1.091259,0.036312103,0.555488585,0.359588635,-40.183105600000005,39.87030035,-138.86993700000002,10.502844355204328,0.6628509549129024,149.9641075357971,14.83178125000022,27.723781250000158
45500,45500.0,3.9478416,-11.87910425,0.6633033725,-0.12908172750000002,-0.24052048,-0.06757736125,-38.96209845,40.2725985,-139.39490800000002,12.543685527995885,0.29103285810754953,150.23613073344416,14.779921875000221,27.70992187500016
45600,45600.0,2.55621644,-10.072143400000002,-1.36250004,-1.4785003600000002,-0.868014528,-0.7115906,-40.93276965,40.79574545,-135.02479200000002,10.485845666321241,1.8576911321597809,146.87306298115118,14.728062500000222,27.696062500000163
45700,45700.0,-1.2328522,-10.668298599999998,0.237066654,-1.63615416,-0.489849854,-0.54966431,-43.851776,41.323700200000005,-128.29880025,10.754287433449885,1.795284193456038,141.74385829429582,14.676203125000221,27.68220312500016
45800,45800.0,1.31457826,-8.1124908,0.334039302,-0.23405761600000002,0.08602905279999999,-0.901626588,-45.6131,40.405273,-124.89929,8.229925726764021,0.9497749618212256,138.97112513151293,14.624343750000222,27.66834375000016
45900,45900.0,-0.25577392,-7.49573966,-2.11738284,0.365042112,-1.11813968,-0.34214782,-47.77435295,39.049758700000005,-122.62626850000001,7.803809235528315,1.2273867139612376,137.27519414693614,14.572484375000222,27.654484375000163
46000,46000.0,2.62564692,-8.443841800000001,-2.96684876,0.15945434,-0.102090456,0.068395996,-47.6766966,38.79432655,-122.94204760000001,9.330369761217105,0.20181267370267225,137.45121992970178,14.520625000000225,27.640625000000163
46100,46100.0,2.70345456,-8.9296328,-2.62112726,0.41980895799999995,-0.52351074,0.204327396,-47.4107361,39.17694,-122.967145,9.691699705539511,0.7015479695764105,137.49041318217468,14.468765625000223,27.62676562500016
46200,46200.0,1.87722168,-9.7963258,-4.389965900000001,0.40851135,-0.297897336,0.07287597600000001,-47.06321745,39.333572,-123.56292625,10.902131353118362,0.5116171591674127,137.9488677412244,14.416906250000224,27.61290625000016
46300,46300.0,0.7243323273684211,-13.571185999999999,-2.8280656478947366,0.4513116168421053,0.014472557894736891,0.4480438252631579,-46.027145399999995,39.81277495,-125.3512585,13.909331958309703,0.6770250015490042,139.34329246576186,14.365046875000225,27.599046875000163
46400,46400.0,-2.140251125,-6.80644525,4.001058185,0.246483614,1.08833463,-0.0042480474499999995,-45.65307645,39.9098206,-127.3352845,8.222720042162088,1.12082064893701,141.0364771096757,14.313187500000224,27.585187500000163
46500,46500.0,4.786839895,-11.59324185,0.10460357650000007,0.5546150000000001,0.229998777,0.34696884450000004,-44.3343345,40.00228855,-129.776384,12.548214369435971,0.6941966522468102,142.8555471400722,14.261328125000224,27.57132812500016
46600,46600.0,1.53137512,-9.786629875,1.05720139,0.476901245,0.605821991,-0.0577751159,-43.990173799999994,39.481200799999996,-132.39074399999998,9.972086211835924,0.7738412332447009,144.98694299096604,14.209468750000227,27.55746875000016
46700,46700.0,0.797557855,-9.506270375,0.6206771759999999,0.3062522905,0.5997032400000001,0.01902771,-43.394165799999996,38.7875368,-134.785154,9.560878342211408,0.6740410427511967,146.81514297310744,14.157609375000227,27.543609375000173
46800,46800.0,1.77258915,-9.173050475,0.9356338545,0.296865858,0.7720039249999999,0.19256133900000005,-42.15576179999999,38.4112552,-137.046808,9.389600501899096,0.8497013681961514,148.4400911103493,14.105750000000226,27.52975000000017
46900,46900.0,2.100653145,-9.1978939,0.7704925709999999,0.12526016499999998,0.6294822775,0.2680824315,-40.678712,38.29498200000001,-138.492126,9.467001334097828,0.6958584720750016,149.3363689791723,14.053890625000227,27.51589062500017
47000,47000.0,1.95814363,-9.7096651,1.85579227,0.029272460599999994,0.466015623,0.099185179,-39.4110106,38.308104799999995,-138.881528,10.07851061282841,0.4779963858588758,149.3615493475914,14.002031250000227,27.502031250000172
47100,47100.0,2.1762588700000003,-10.0884243,1.53150026,-0.1110229517,0.56528777,0.265577695,-37.8912348,38.0950916,-139.719852,10.43461921428846,0.6353852000341924,149.69512722676126,13.950171875000231,27.488171875000173
47200,47200.0,3.69824373,-11.4400661,0.06660003939999992,-0.196875004,-0.45895996,-0.0188446043,-37.283325,38.4475708,-138.94867,12.026572675026289,0.501141513543393,148.91284390669063,13.898312500000232,27.47431250000017
47300,47300.0,0.55765992,-8.9948651,-1.2679229900000002,-1.68430787,-0.185502625,-0.43248595,-38.616028,39.21753,-135.57678,9.103005170676594,1.7489083921046886,146.3233385078393,13.846453125000231,27.46045312500017
47400,47400.0,0.730513,-11.67195,-0.240093991,-1.21366727,-0.280426023,-0.7871154810000001,-40.814820000000005,39.8126218,-130.166324,11.699531618018641,1.4744681702671252,142.10734845245997,13.794593750000232,27.446593750000172
47500,47500.0,0.831910705,-8.20765385,0.125024414,-0.452439882,-0.303326428,-0.601441957,-43.0371088,39.3554688,-126.51580600000001,8.250824303942776,0.8139697658218196,139.31041374107036,13.74273437500023,27.432734375000173
47600,47600.0,-0.6587165819999999,-7.573010225,-0.7306602475,0.305656435,-0.550790425,-0.296189119,-45.0189216,38.341064200000005,-125.667116,7.638631802892207,0.6972878012722995,138.88494470573255,13.690875000000231,27.41887500000017
47700,47700.0,2.917147785,-8.534100200000001,-2.98211973,0.123553465,-0.213472745,0.02461853,-45.1358028,38.2656864,-125.72632,9.499172455785585,0.2492240362652999,138.9554811381607,13.639015625000232,27.40501562500017
47800,47800.0,3.85872425,-9.944585,-2.8750900550000003,0.22427444600000002,-0.39168472200000004,0.126888275,-44.826355,38.3798218,-126.18439,11.048830704898435,0.4708274942797095,139.30157956617376,13.587156250000234,27.391156250000176
47900,47900.0,0.6303855749999998,-7.79220426,-1.78615421,0.5186546075,0.08011322025000006,-0.080574039,-45.2346792,37.7770994,-126.4767456,8.024886360596032,0.5369859186999401,139.53372374242636,13.535296875000233,27.377296875000177
48000,48000.0,3.913788775,-13.16491525,-5.24380106,0.182883457,-0.5269286999999999,0.377858748,-44.0759272,38.5910036,-127.9028336,14.712909040718005,0.6771399627607706,140.68088355493518,13.483437500000234,27.363437500000177
48100,48100.0,-1.22560957,-8.740846925,1.429561655,0.42188720399999996,0.3979393015,0.30521469450000005,-43.250426000000004,38.6337278,-130.225524,8.952342586900498,0.6682881472154182,142.5551863310485,13.431578125000234,27.349578125000182
48200,48200.0,1.942282905,-9.987628399999998,0.68694305025,0.51966477,0.211998746,0.07409820575,-42.4795536,38.6001588,-132.16156,10.200833076896872,0.5668136541861488,144.08751452296815,13.379718750000233,27.335718750000183
48300,48300.0,1.9768218999999998,-9.858092999999998,0.35295105,0.59451294,0.24389648,-0.049209595,-42.2735604,38.246765,-133.977358,10.06053660918068,0.6444786365923217,145.60179297024354,13.327859375000234,27.32185937500018
48400,48400.0,1.6045227,-9.158997,1.1178894,0.1641388,0.33764648,-0.010864258,-42.2833252,37.88398675000001,-135.29243449999998,9.365436233911193,0.3755858400202555,146.7212880777874,13.276000000000238,27.30800000000018
48500,48500.0,1.0574493,-9.403198,0.38647459999999995,0.34843445,0.14376831,0.22563171,-41.72943035,37.7783967,-135.91255099999998,9.470358718956724,0.4393012195118319,147.10853767992253,13.224140625000238,27.294140625000185
48600,48600.0,2.3682708999999997,-9.203278,1.0341034,0.25042725,0.06600952,0.36624146,-40.7086183,38.0812843,-137.098622,9.559205136566657,0.4485575451334249,147.99832760395168,13.17228125000024,27.280281250000186
48700,48700.0,1.7529602,-9.470245,1.1526184,0.15774536,0.24070740000000002,0.26290894,-39.43611175,38.247679999999995,-138.0979145,9.699842215151113,0.3898009257918883,148.62417643060346,13.120421875000241,27.266421875000187
48800,48800.0,2.5394592,-9.443909,1.8098145,-0.059570312,0.65296936,0.2756958,-37.9857625,38.398514,-138.8711555,9.945436076570797,0.7112845993751215,149.00545861093838,13.06856250000024,27.252562500000185
48900,48900.0,2.378440835,-11.80984675,1.400234955,-0.004172515875,-0.1998367285,0.0338882446,-36.9496154,38.7117006,-139.18884350000002,12.129561747115764,0.2041934412035779,149.12213665515822,13.016703125000241,27.238703125000185
49000,49000.0,1.31937715,-9.81614505,-2.135338605,-1.372984335,-0.30498123,-0.6728111225,-38.85246335,39.713821100000004,-136.1874405,10.133085518916184,1.5591639091144491,147.08637993622688,12.964843750000243,27.224843750000186
49100,49100.0,-0.5628379720000001,-11.084352849999998,0.3087776185,-1.65981213,-0.03616027795,-0.49538497600000003,-41.1502072,41.00883515,-129.3296795,11.105356326133084,1.7325757842670628,141.77903863199703,12.912984375000244,27.21098437500019
49200,49200.0,1.93905567,-8.996487049999997,0.261196909,-0.520079804,-0.10875930925,-0.6487907414999999,-43.2530213,40.63430775,-125.23903025,9.208223872701144,0.8413598665269344,138.58879591024092,12.861125000000243,27.19712500000019
49300,49300.0,0.824667375,-7.678950565,-2.066335255,0.1983337415,-0.60389174,-0.378900915,-45.3022003,39.653473,-124.4448835,7.9947759085048675,0.740063301528101,138.24346721305417,12.809265625000243,27.183265625000193
49400,49400.0,1.495578765,-7.5595978000000015,-1.922856165,0.12728195,-0.16878356665,0.01093215935,-46.1445614,39.6556848,-123.9250187,7.944655440698501,0.2163741751499173,138.05544561741792,12.757406250000242,27.16940625000019
49500,49500.0,4.0377489,-9.4501265,-3.39325255,0.26171417,-0.38652648799999995,0.1702331555,-45.724334899999995,39.80316120000001,-124.65141270000001,10.824273565280793,0.4987671017799754,138.61102149779856,12.705546875000243,27.15554687500019
49600,49600.0,2.50641471,-7.11026763,-2.47089543,0.140283201,-0.3660644523,-0.345027152,-46.26411395,39.6452325,-123.41072225,7.941771390725857,0.5395181639808967,137.63117111707422,12.653687500000244,27.14168750000019
49700,49700.0,1.00525515,-14.045433,-2.78776859,0.7883819400000001,-0.32121277600000003,0.699562076,-45.450668,39.9172205,-126.15310525,14.395556320788266,1.1211130350664968,139.90671479909048,12.601828125000242,27.127828125000192
49800,49800.0,-2.55731502,-6.01360633,4.41100617,0.0749801642,1.3529495299999998,-0.007662964499999997,-45.05432175,39.851685499999995,-126.80099299999999,7.892235232077414,1.3653367785309285,140.3446124993483,12.549968750000248,27.113968750000197
49900,49900.0,4.03642417,-10.7105527,0.044091795999999996,0.52217101,0.51830904,0.302439884,-43.78929125,40.1289364,-129.04655350000002,11.450061538286487,0.7978460607961967,142.05956447648828,12.498109375000247,27.100109375000194
50000,50000.0,2.753494285,-10.35291375,1.3340995999999998,0.62267838,-0.33405991620000003,0.305533603,-43.11264055,40.03517125,-130.357204,10.798197953360665,0.7755087240442473,143.01943134285412,12.446250000000248,27.086250000000195
50100,50100.0,1.176675375,-9.1248769,0.949517085,0.2069046035,0.325286103,-0.09911956585,-43.06823735,39.67468295000001,-132.27936100000002,9.249440201640876,0.39819344743868,144.66101131035757,12.394390625000248,27.0723906250002
50200,50200.0,1.66677398,-9.611790849999998,0.8581306515,0.349070737,0.15894241550000002,0.21380080850000002,-42.38682757894737,39.19790105263158,-133.5640352631579,9.792934912656566,0.4391394593911114,145.50779442586966,12.342531250000247,27.0585312500002
50300,50300.0,1.6607819,-9.8389435,0.026138306,0.30581665,0.20875549999999998,0.3033905,-41.5145865,39.052582,-135.27908000000002,9.978160598356814,0.4786945557322775,146.79586070203743,12.29067187500025,27.0446718750002
50400,50400.0,1.5051575000000001,-9.708466,1.5021666999999999,0.11940002400000001,0.2833252,0.21604920000000002,-40.358534210526315,39.09109031578947,-135.86377578947364,9.938627468999488,0.3757749213383999,147.0237161888686,12.23881250000025,27.0308125000002
50500,50500.0,1.5985413,-9.741974,1.0065613000000002,0.07359314,0.5986328000000001,0.17343139999999999,-38.93814,39.37683,-137.03842,9.923434755926973,0.6275791822526139,147.8052170559302,12.186953125000253,27.0169531250002
50600,50600.0,2.6424103,-10.528473,2.5364532000000004,0.004348755,0.23431396,0.33535767,-37.181854,38.9434825,-137.799075,11.14740645805406,0.4091292098454479,147.9450270367115,12.135093750000253,27.0030937500002
50700,50700.0,0.31309280300000003,-11.23152735,-2.3274246,-0.60722426,-0.2042564415,-0.304767605,-37.3756415,39.27383450000001,-137.242125,11.474868638787319,0.7112768899590467,147.56308411073962,12.083234375000252,26.9892343750002
50800,50800.0,-0.16198120400000002,-9.52363225,-0.015878296800000004,-1.836434145,-0.08935852074999999,-0.660823055,-39.012146,40.2549745,-132.032015,9.52715023979937,1.9537787855607245,143.43994730239902,12.031375000000253,26.9753750000002
50900,50900.0,0.946532435,-10.984506,0.059354400700000004,-1.16381452,-0.24884033449999998,-0.5793388235,-40.6951905,40.3869635,-127.43911999999999,11.025554361820905,1.3239323102390712,139.74272499653375,11.979515625000253,26.961515625000207
51000,51000.0,0.42806930299999996,-8.29043795,-0.7024154499999999,-0.00805740425,-0.4898475665,-0.5797050465,-42.47557052631579,39.68634347368421,-125.3716736842105,8.332588901793152,0.7601578941694227,138.1929517819077,11.927656250000256,26.947656250000204
51100,51100.0,-0.6252624503499999,-7.727975505,-1.459574855,0.33425598149999997,-0.27524795399999996,-0.155360409,-43.7091057,39.0377044,-125.61942749999999,7.8905756027216665,0.4608479908949849,138.6171755304977,11.875796875000255,26.933796875000205
51200,51200.0,3.67814333,-9.9877484,-2.96277772,0.274707036,-0.0461654659,-0.0186401372,-43.4190373,38.8831327,-126.35032645,11.048513155403619,0.2814936960050191,139.14570248039195,11.823937500000255,26.91993750000021
51300,51300.0,3.76312864,-9.09542665,-2.89515077,0.0212844848,-0.45128174,-0.42482299,-44.22180170000001,38.3626555,-126.41761625,10.260508756093408,0.6205894140349841,139.31518916311674,11.772078125000256,26.90607812500021
51400,51400.0,0.25107269,-7.58061668,-1.60514371,0.641693114,-0.363504032,0.18867035,-44.836883,37.93678275,-126.7642215,7.7569322319942415,0.7655920227679585,139.70947625983118,11.720218750000255,26.89221875000021
51500,51500.0,4.40669083,-15.998150699999998,-6.2636673100000015,0.22858886399999997,-0.5901992755,0.36124725700000004,-43.284929473684215,38.45616442105264,-128.0394694736842,17.75120128918209,0.7300281248898103,140.52267686199895,11.668359375000255,26.87835937500021
51600,51600.0,-1.719833362,-7.862414500000001,0.99100951,0.637324523,-0.342626957,0.287199403,-42.6010125,38.42010500000001,-129.72946000000002,8.165467627726471,0.7793696394072692,141.8474651333404,11.616500000000258,26.86450000000021
51700,51700.0,1.47175595,-10.100993199999998,1.062345884,0.411282362,-0.1089096065,0.038246155,-42.1714785,38.613128,-131.18133500000002,10.278498493903246,0.4408530185747434,143.10136289032218,11.564640625000257,26.85064062500021
51800,51800.0,0.8193389879999999,-9.938550099999999,-0.36327973,0.67450867,-0.18859099940000001,-0.11684875800000001,-42.32025,37.955475,-132.27920500000002,9.979906272811391,0.7142888236228965,143.97726816649305,11.512781250000259,26.83678125000021
51900,51900.0,1.369642685,-9.43569825,1.201814255,0.235889438,0.5456894105,0.15489502049999998,-42.1318055,37.58316,-133.8707,9.616927800413787,0.6155270989036108,145.2894377661771,11.46092187500026,26.82292187500021
52000,52000.0,1.5999137449999998,-9.678717825,0.393178559,0.398339082,0.263875578,0.224512479,-41.064454,37.34588700000001,-135.25314,9.821634484123454,0.5280402953290386,146.2000754835519,11.40906250000026,26.80906250000021
52100,52100.0,2.065290095,-9.44330925,1.10837709,0.123600007,0.30270537950000004,0.2698417655,-39.904785,37.678528,-137.129975,9.730160160512764,0.4239593796646321,147.70513352821126,11.35720312500026,26.79520312500021
52200,52200.0,1.219712795,-10.186757525,0.9411399804999999,0.0103668215,0.4488059945,0.1084533695,-38.8809215,37.438202,-137.71362,10.302623300993718,0.4621980694583419,147.91348338498773,11.305343750000262,26.78134375000021
52300,52300.0,1.877935005,-9.4219933,1.007708,-0.2583496105,0.6721893315,0.15910339699999998,-37.567901,37.670134999999995,-138.31711,9.662785728020175,0.7386711967068996,148.19609499904936,11.253484375000262,26.76748437500021
52400,52400.0,3.82383116,-11.81278185,-0.826436595,-0.5836769125,-0.2523437535,-0.0910163884,-36.933135,38.561249,-137.31994500000002,12.448605069795587,0.647233846303133,147.33566815417913,11.201625000000265,26.753625000000216
52500,52500.0,-2.94314731,-10.94105575,-0.3252075205,-1.893633995,-0.050057220750000006,-0.74045332,-39.10675000000001,39.451599,-132.250215,11.335781346623275,2.0423768627911385,143.4434622603221,11.149765625000265,26.739765625000214
52600,52600.0,1.93845825,-10.2933038,0.234194951,-1.060057855,0.08203658999999999,-0.425615688,-39.961243,39.8155215,-127.767185,10.47994907422507,1.152443563872953,139.66693114906582,11.097906250000264,26.725906250000214
52700,52700.0,0.181821443,-8.01653175,-0.604432671,0.11093292199999999,-0.22928848,-0.433765409,-41.52944510526316,39.533675631578944,-127.23500842105264,8.043387475514814,0.5053210587914367,139.55787263432006,11.046046875000265,26.71204687500022
52800,52800.0,0.982444775,-8.521479425,-1.521348605,0.1985473645,-0.572413611,-0.2648124695,-42.41622935,39.22721905,-127.28965825,8.713500105266924,0.6627006494147705,139.78771198352018,10.994187500000265,26.69818750000022
52900,52900.0,2.6912977894736843,-8.360147842105262,-1.788787005263158,0.06820598263157895,-0.005760594842105261,-0.045114617526315785,-42.97638,38.829726,-126.62536770000001,8.964496281497503,0.08995805002935386,139.2433320304613,10.942328125000264,26.68432812500022
53000,53000.0,2.93569946,-9.7268984,-3.28527828,0.480316174,-0.77278746,0.17769470399999998,-42.678069799999996,39.4578558,-126.68823370000001,10.683939544504419,0.9272941956875894,139.38537084559022,10.890468750000267,26.670468750000218
53100,53100.0,0.89152834,-8.1622832,-1.6442901319999998,0.44216918,0.42670898399999996,-0.094583131,-43.134155,38.81149295,-127.68112375,8.476684994517491,0.6329888598323641,140.2475253114375,10.838609375000267,26.65660937500023
53200,53200.0,4.569979900000001,-12.4160645,-3.88886106,0.0629394536,-0.15024414200000002,0.066058352,-42.0568085,38.9383706,-128.8885445,13.820639482797356,0.4674448548087286,141.05755772512742,10.786750000000268,26.64275000000023
53300,53300.0,-0.22441712000000005,-8.651898200000002,-1.17550968,0.6028167720000001,-0.12702331320000002,0.412271116,-41.38778725,39.048537,-131.143952,8.793523443245252,0.7433708222650501,142.9562601281838,10.734890625000267,26.628890625000228
53400,53400.0,-0.007250976000000006,-9.045273,0.5890136800000001,0.476470946,-0.002603148,0.06137390080000001,-40.358124200000006,38.91815285,-133.0700705,9.077975983875454,0.5048100017517363,144.39912927643283,10.683031250000267,26.61503125000023
53500,53500.0,2.06037592,-10.236142,0.5186309861999999,0.6437225120000001,-0.211810306,0.08821105929999999,-40.04409885,38.56048585,-134.05990649999998,10.458509681795826,0.6855068570201479,145.12929206346206,10.63117187500027,26.60117187500023
53600,53600.0,0.45560074,-9.1748465,0.5438880850000001,0.2134094225,0.17412567,-0.07264328237499999,-40.34454435,38.3370204,-135.5375725,9.207778140757444,0.28993616752090184,146.5190948861889,10.579312500000269,26.58731250000023
53700,53700.0,1.53538515,-9.546847999999999,0.81173706,0.2658691425,0.14776229999999999,0.2043266325,-39.64576715,38.08174165,-136.57303000000002,9.703958093999523,0.36693215611229,147.22198603753066,10.527453125000273,26.573453125000228
53800,53800.0,1.198104875,-9.54505575,0.4436264,0.2365798975,0.29956055,0.2605209325,-38.179016,38.14529385,-137.830353,9.630428810161613,0.4639609854339468,148.0201433730848,10.475593750000273,26.55959375000023
53900,53900.0,1.6949005,-9.71444725,0.94701,0.152954105,0.21647262,0.2120513875,-37.03934526315789,38.316425578947374,-138.6660947368421,9.91074970199789,0.34448771903241826,148.55447613276212,10.423734375000272,26.54573437500023
54000,54000.0,1.439018225,-9.5142285,0.82400895,0.01952743525,0.6819915925,0.244804385,-35.5508424,38.6105348,-139.80285999999998,9.660821086233957,0.7260909694448527,149.33013155535144,10.371875000000273,26.53187500000023
54100,54100.0,3.0461272999999998,-10.48238375,1.763732925,-0.146656035,0.2774581875,0.13002014,-33.4231568,39.032898,-139.525148,11.062077108955288,0.3420184992214784,148.68770051743832,10.320015625000273,26.518015625000228
54200,54200.0,1.682029725,-11.2548215,-2.4470749,-0.94613645,-0.50524521,-0.440425865,-34.1827398,40.167236200000005,-137.99743600000002,11.646260833072256,1.1667402724696652,147.73358751569216,10.268156250000272,26.50415625000023
54300,54300.0,-3.1314469000000003,-10.7334183,0.0073486325,-1.62742154,0.1232070932,-0.81439057,-37.03521679999999,42.131044,-132.66144,11.199914066089152,1.8273922927239368,144.0352061184633,10.216296875000275,26.490296875000233
54400,54400.0,1.235809358,-9.6596224,-0.33095245100000004,-0.96034851,0.31772308899999996,-0.5535018899999999,-38.593445200000005,42.9708862,-127.62512040000001,9.746626196506515,1.1588134849930098,140.08622077543646,10.164437500000275,26.476437500000234
54500,54500.0,1.78911134,-7.863366900000001,-1.18640444,0.018736265999999998,-0.405162047,-0.35216826900000003,-40.5023196,43.090515,-126.61346499999999,8.153882551290058,0.5422176696813564,139.74349928274083,10.112578125000276,26.462578125000235
54600,54600.0,2.07258759,-8.504299900000001,-2.49327546,0.0578292849,-0.456086731,-0.139430234,-41.3412474,42.9821776,-126.5859976,9.11278249998745,0.4807722783497175,139.9306332557175,10.060718750000275,26.44871875000024
54700,54700.0,2.35211636,-8.587142850000001,-1.65722045,0.221557616,-0.366282654,-0.06220397985,-41.92688,43.0603022,-126.378174,9.0597298281858,0.4358275240259977,139.94105871021972,10.008859375000275,26.43485937500024
54800,54800.0,3.9522752,-9.9068221,-3.39361722,0.452723694,-0.602021781,-0.051980591,-42.125855,43.3282462,-126.69738600000001,11.195163344151254,0.7553137087125038,140.37149495441443,9.957000000000278,26.421000000000237
54900,54900.0,0.004238890000000051,-9.2046625,-1.46891558,0.47205276700000004,0.036602019,0.1327407848,-42.6202384,43.52478,-127.64403999999999,9.346754089615514,0.5068572792475519,141.4352328239669,9.905140625000278,26.40714062500024
55000,55000.0,2.750330355,-10.9041221,-2.847314475,0.25037307649999996,0.25307082605000003,0.113890075,-41.517334000000005,44.2047118,-128.713684,11.63889072206536,0.4771387616915241,142.28486692576303,9.853281250000279,26.39328125000024
55100,55100.0,1.082945247,-9.45084055,-0.648068234,0.5664390579999999,0.09514160005000001,0.485186005,-40.36163300000001,44.5492544,-131.05224199999998,9.569882937535553,0.7604032325625381,144.1820962686676,9.80142187500028,26.37942187500024
55200,55200.0,1.99393691,-9.628080625,0.9895080559999999,0.43194885,-0.09245605585000001,0.052414703550000004,-39.6295162,44.3826296,-133.016052,9.882587842464982,0.4549825093759388,145.71750204987057,9.749562500000279,26.365562500000237
55300,55300.0,0.645400999,-9.2514082,-0.574624632,0.37762070000000003,0.3298202525,-0.20074005350000002,-40.027770000000004,44.202575599999996,-134.595336,9.303115362109027,0.5430221676691842,147.21412438789713,9.69770312500028,26.35170312500024
55400,55400.0,2.137768575,-9.645021525,0.803350845,0.281053164,0.3595405575,0.1858474705,-39.72351079999999,44.037171,-136.09985600000002,9.91181789800229,0.4931663053288573,148.46026677093388,9.645843750000283,26.337843750000246
55500,55500.0,1.68544312,-9.8597718,0.128375244,0.284725952,0.32273864,0.32534179999999996,-38.43994,43.8253784,-137.186584,10.003902381640117,0.5413996869746087,149.05872729979308,9.593984375000284,26.323984375000247
55600,55600.0,2.11496274,-9.8533114,1.29051818,0.108963012,0.14440918,0.264199828,-36.6879274,44.48059,-137.66846,10.163519984332211,0.3217333361202517,149.2553401531368,9.542125000000283,26.310125000000248
55700,55700.0,1.5875214,-9.6241824,0.90074158,0.105761718,0.42372132,0.241613772,-35.41023345,44.6319575,-138.48472700000002,9.7970636196671,0.4998998393706999,149.74655543856755,9.490265625000283,26.29626562500025
55800,55800.0,2.7805542,-9.893051400000001,1.27112426,-0.033575439500000005,0.523849486,0.312774658,-33.48998905,44.91134635,-138.922962,10.357833560436408,0.6122405308387986,149.7940413549521,9.438406250000284,26.282406250000246
55900,55900.0,2.89020694,-12.4268372,-1.14510193,-0.39150695399999996,-0.542044058,-0.197494508,-33.63594055,45.629729,-138.13797250000002,12.824442336189492,0.7017865797879919,149.3171298568281,9.386546875000283,26.268546875000247
56000,56000.0,-0.36829833,-9.5980898,-1.08787844,-1.54177246,-0.38438720600000004,-0.849432376,-37.08908095,46.8483739,-131.77039950000002,9.700724740727207,1.80403753639508,144.68703358024612,9.334687500000284,26.254687500000248
56100,56100.0,0.879797376,-11.254639,-0.06076965199999997,-1.2202788999999998,-0.0908081064,-0.5927093520000001,-40.2146143,46.9783776,-125.9132355,11.301447824288287,1.3600361212118524,140.27981050843334,9.282828125000288,26.24082812500025
56200,56200.0,0.88368683,-8.104284700000001,-0.0024726875000000014,-0.1081947304,-0.31025085750000003,-0.5707077014999999,-42.799606,46.034316700000005,-123.03894175,8.153578983438846,0.6788599418533607,138.16502119435648,9.230968750000287,26.226968750000246
56300,56300.0,-0.02227859365,-7.51608735,-1.41624377,0.3120010325,-0.5126998925,-0.12127456875,-44.1111,45.5406185,-123.09944099999998,7.650510349478619,0.6186950112571592,138.46745584089487,9.179109375000287,26.213109375000247
56400,56400.0,3.203486635,-8.33951995,-3.03191148,0.188270567,-0.10273132505,0.25279388350000004,-43.36105335,46.0941324,-122.9116835,9.434364454809447,0.3401894854478784,138.24671195692628,9.127250000000288,26.199250000000248
56500,56500.0,5.02272493,-10.50070095,-3.31287157,0.0982528645,-0.70577697,-0.12824935985,-42.9631039,45.817260299999994,-122.86956675,12.13938511421252,0.7270465295734259,137.99279729275105,9.075390625000287,26.18539062500025
56600,56600.0,-1.93668668,-10.34472675,0.6950797875000001,0.7400688065000001,0.3034538285,0.5879264735,-42.69241375,45.97045795,-124.72267135,10.578543509588053,1.0606646900758854,139.61312264174074,9.023531250000287,26.17153125000025
56700,56700.0,1.281118787,-8.2644579,1.1444679400000002,0.051376344649999996,1.21409455,-0.1286239605,-41.486129299999995,46.0935983,-125.407868,8.88639829637498,1.2225179646498348,139.90307840351372,8.971671875000288,26.157671875000247
56800,56800.0,3.1235801263157894,-10.249233105263158,0.020843505263157813,0.5098989410526316,-0.030876564210526317,0.4349325089473685,-40.200041999999996,46.2838752,-127.476578,10.734484415078398,0.6874006271043325,141.45159269836944,8.919812500000289,26.143812500000248
56900,56900.0,1.6745529,-9.8305665,1.3303832999999998,0.58971405,-0.41230011,0.193138125,-39.6862792,46.1985774,-129.140552,10.07147638018468,0.7457973980064305,142.78167727852392,8.867953125000291,26.129953125000252
57000,57000.0,0.843757635,-9.235611,0.10215759499999992,0.35535431,0.0052871705000000005,-0.144546505,-39.9184417,45.512847799999996,-131.023713,9.28035816113382,0.38462267198427136,144.33340012135167,8.816093750000293,26.116093750000253
57100,57100.0,1.99118045,-9.592941,0.9012146000000001,0.17798614499999998,0.2662735,0.0876770025,-39.56710805,45.60798625,-131.83441549999998,9.838876738758042,0.33258335054147503,145.00338753367194,8.764234375000294,26.102234375000254
57200,57200.0,0.9856186,-9.434921500000002,0.430755625,0.295700075,0.15335846,0.263442995,-38.629836499999996,45.54550175,-132.8255455,9.496422316601027,0.4267078930624757,145.6341242018302,8.712375000000293,26.088375000000262
57300,57300.0,2.3197861,-9.72821825,1.3890381,0.06880188000000001,0.407951355,0.31351471,-36.84600925,45.81901525,-134.010928,10.096998424148538,0.5191326206068262,146.34191907621675,8.660515625000293,26.074515625000263
57400,57400.0,1.2699280000000002,-9.26075,1.2681350500000002,0.059211731,0.56774138,0.20592499,-35.09429960000001,45.87913445,-134.9095125,9.435035299025476,0.6073790665803258,146.7551821124485,8.608656250000294,26.060656250000264
57500,57500.0,2.84740905,-10.2403893,1.604634885,-0.08518600400000001,0.5071800235,0.2368179335,-33.128661900000004,45.879363899999994,-135.400241,10.749809994007327,0.567839232023839,146.75046431835204,8.556796875000295,26.04679687500026
57600,57600.0,1.546041085,-11.87593375,-2.18035586,-0.7959251475,-0.26934356449999997,-0.41027679450000004,-32.9505918,46.7251584,-134.053496,12.1732438986714,0.9375231640144391,145.73757060583827,8.504937500000294,26.032937500000266
57700,57700.0,-1.283307655,-9.99008025,-0.016237636,-1.6047386650000002,0.05268783599999999,-0.5999488829999999,-35.2011107,47.268065899999996,-127.50579920000001,10.081840364627553,1.720292864917372,140.4679818457681,8.453078125000296,26.019078125000267
57800,57800.0,1.338942735,-10.17843845,-0.6628486565,-0.94895708,-0.266464998,-0.450547796,-36.540985299999996,47.538757000000004,-122.560273,10.289159105140998,1.0851867775125446,136.4413591685831,8.401218750000298,26.005218750000267
57900,57900.0,1.06038134,-8.1585146,-0.7453941315000001,0.047492219750000016,-0.482182303,-0.40868148950000005,-38.2505802,47.570191200000004,-120.866395,8.265943375131696,0.6377778448126206,135.40578878427746,8.349359375000297,25.99135937500027
58000,58000.0,1.163983155,-8.74084505,-2.22608567,-0.1026527425,-0.528306591,-0.283884428,-39.1546628,47.6762388,-120.028837,9.094852790152233,0.6103079200164189,134.9558464541377,8.297500000000298,25.977500000000266
58100,58100.0,2.38616332,-8.06598282,-1.56277007,0.07784652789999999,-0.02928772099999999,-0.090750123,-39.933931,47.754515999999995,-119.6554558,8.556378315193689,0.14508125885107667,134.88020587796044,8.245640625000298,25.963640625000266
58200,58200.0,3.03912656,-8.809921000000001,-2.98983152,0.559136956,-0.277859494,0.012576294079999998,-39.41390970000001,48.0210869,-120.6669625,9.787937291433188,0.6296760221346627,135.72047876859105,8.193781250000299,25.94978125000027
58300,58300.0,1.5075561380000002,-8.7670624,-2.59335632,0.450912476,0.12970886080000002,0.1169799824,-39.001312799999994,48.7480162,-122.737276,9.318692874445366,0.5058287887391795,137.70233012812707,8.1419218750003,25.935921875000272
58400,58400.0,4.45337836,-11.6255004,-3.59820558,0.092767334,-0.4747253244,0.09353637719999996,-36.9155885,49.7259524,-124.1615288,13.06790899447264,0.5669024658694486,138.74985287101808,8.090062500000299,25.922062500000273
58500,58500.0,-0.9958221447999998,-8.6241334,-0.342565904,0.56851502,0.012954712,0.45785828,-36.385040000000004,50.2064518,-126.484681,8.788297831449832,0.7330336196607476,140.86537768705588,8.038203125000301,25.908203125000274
58600,58600.0,0.5125183160000001,-9.6948116,1.22156676,0.39593810799999996,0.329339598,0.0643554672,-35.039520100000004,50.339356099999996,-128.474118,9.804133352033984,0.5216422866771911,142.36408164034216,7.986343750000301,25.89434375000027
58700,58700.0,1.98735658,-10.240219,-0.34160460400000003,0.6769592,0.0025146479999999943,-0.06667480680000001,-34.8498528,50.4254145,-130.937499,10.465052301705157,0.6913446456392954,144.57500566601357,7.9344843750003005,25.88048437500027
58800,58800.0,1.034402455,-9.21304275,0.9632858445,0.1768142705,0.48299788,0.0030967714500000076,-35.133058000000005,50.53802520000001,-132.47863600000002,9.320886633259775,0.5165967846025898,146.07889747305006,7.882625000000299,25.866625000000273
58900,58900.0,1.29022443,-9.2532055,0.4230354325,0.372987367,0.21599274,0.3278396655,-33.766784699999995,50.726166,-134.11926100000002,9.355942661884816,0.5420992151889805,147.31394606504347,7.830765625000299,25.852765625000274
59000,59000.0,2.542867295,-9.628197325,1.4368056999999999,0.044721984050000003,0.291521455,0.37285614,-31.8006893,51.0029604,-134.981991,10.063879997511293,0.4756554867503041,147.75907615562764,7.778906250000299,25.83890625000027
59100,59100.0,1.27597888,-9.48412655,0.8284401,0.087924197,0.527632905,0.11963958775,-30.0418089,51.5733348,-135.893709,9.609383698158297,0.5481349337779817,148.4232586993372,7.727046875000299,25.82504687500027
59200,59200.0,3.560886405,-11.570848275,1.88068998,-0.207585142,0.10121002310000002,0.077876284,-29.174499400000002,52.4475101,-135.382079,12.255731906426563,0.2833802248435746,148.0885339576521,7.675187500000299,25.81118750000028
59300,59300.0,0.24670638600000003,-10.4896914,-2.16933976,-1.424118835,-0.1280853245,-0.7848251310000001,-31.814792714285716,54.180254000000005,-131.82591428571428,10.7159358618286,1.6343588038224302,146.0346195577797,7.623328125000299,25.79732812500028
59400,59400.0,0.3018333445,-10.9715288,-0.09872055474999998,-1.55386507,0.3137832655,-0.429183957,-34.8312375,55.015945499999994,-123.72283875,10.982885245536432,1.642580622587358,139.8121153283975,7.5714687500002995,25.78346875000028
59500,59500.0,1.33823015,-9.028448375,-0.32879941999999995,-0.5077209599999999,-0.017728424500000006,-0.6047386195000001,-37.8089905,55.06095925,-119.2485775,9.147604906034124,0.8052288415176019,136.6805828648579,7.519609375000298,25.769609375000282
59600,59600.0,0.89236297,-8.155874,-1.254160305,0.294586175,-0.2634323115,-0.4271583555,-40.73524375,54.62837225,-119.190215,8.305464522033514,0.5830334609515342,137.29508291400128,7.467750000000298,25.75575000000028
59700,59700.0,1.5753730949999998,-9.00534455,-3.098594705,0.033380890200000006,-0.6576812839999999,-0.07950591989999999,-42.345809,54.353714000000004,-119.29435625,9.671289032249664,0.6652876737899305,137.76312019084838,7.415890625000298,25.74189062500028
59800,59800.0,2.026313,-8.47322645,-1.65284955,0.1658416724,0.07863311634999999,0.05146408225,-42.617416999999996,54.63981625,-119.37255625,8.868777736821727,0.214135373384832,138.02746933531137,7.3640312500002985,25.72803125000028
59900,59900.0,3.975263955,-9.3851851,-3.522010835,0.28196029899999997,-0.401482385,-0.051280975160000006,-42.47550975,54.9728395,-119.8635125,10.784571877810615,0.4955327830169608,138.5404901092411,7.312171875000298,25.714171875000282
60000,60000.0,-0.311080924,-9.3346057,-1.28216704,0.66609193,0.133117674,0.46617126700000006,-42.73757925,55.50727875,-122.41935749999999,9.427408439819468,0.828012522420639,141.04666881289612,7.260312500000298,25.700312500000287
60100,60100.0,3.445060725,-10.3126945,-2.91692735,0.16626358000000002,0.6761322107500001,-0.05826568625,-41.52908375,55.838775,-124.1371125,11.267813899099131,0.7175883508512297,142.31207181821196,7.208453125000298,25.686453125000288
60200,60200.0,1.06014254325,-8.478142,-0.0798034649999999,0.5713386549999999,0.06360244725,0.36305238,-41.228865,55.94368000000001,-126.9397725,8.58285808191699,0.6808018336127235,144.71827509240387,7.1565937500002965,25.672593750000285
60300,60300.0,1.00620731,-10.3575314,1.001776144,0.44898682,-0.381195074,0.35261231600000004,-40.512848,55.998994,-129.83398,10.47479803235536,0.7077696625612625,147.0852823524411,7.104734375000295,25.65873437500029
60400,60400.0,1.55615536,-9.8197844,-0.25997009,0.46645812,0.410504152,-0.10567016439999999,-39.9154665,55.58090125,-132.394025,9.94943620330317,0.6349014424356305,149.03243257716636,7.052875000000296,25.64487500000029
60500,60500.0,2.618051975,-9.2640385,1.08933869,0.174362949,0.48924103,0.07895050025,-40.16685475,55.21163975,-134.13162250000002,9.690701693105067,0.5275491724342771,150.50921597395256,7.001015625000296,25.63101562500029
60600,60600.0,1.56985854,-9.554214199999999,0.27065124949999997,0.349015047,0.1170867885,0.2279800405,-39.2761225,55.04989499999999,-136.5074175,9.686230114959328,0.4340363378758029,152.33982180155581,6.949156250000296,25.617156250000292
60700,60700.0,1.79634935,-9.5108772,1.2083404949999998,0.29884262300000003,-0.1583892825,0.29625473350000003,-38.41247571428571,55.04499128571429,-137.95710857142856,9.756833190676863,0.4501006422524276,153.41984819713832,6.897296875000294,25.60329687500029
60800,60800.0,1.67562864,-9.9404645,0.397595214,0.04568634,0.48731078200000005,0.15553588699999998,-37.752151500000004,54.7218325,-139.0975975,10.088952657183146,0.5146793775401984,154.16827313208802,6.845437500000294,25.58943750000029
60900,60900.0,2.81406555,-10.1043364,1.43584441,-0.002145385740000002,0.40806122100000003,0.188459776,-36.80763175,55.02853399999999,-140.209195,10.586866040755304,0.4496550929433201,155.05341069116747,6.793578125000295,25.57557812500029
61000,61000.0,3.10652317,-12.202736300000002,-1.37889403,-0.829756162,-0.393870548,-0.2241287264,-38.24386625,55.434799,-139.0991175,12.667762086510615,0.9460994820074,154.5461645906554,6.741718750000294,25.561718750000292
61100,61100.0,-2.2685806,-10.4839421,-0.16863402999999988,-1.98088229,-0.483460998,-0.6154983359999999,-43.69163525,56.3747405,-130.104825,10.736164053131693,2.1319197313730087,148.37483803272113,6.689859375000294,25.54785937500029
61200,61200.0,0.9800053394736844,-10.227061842105263,0.05360814084210526,-1.0291193894736843,0.2176609989473684,-0.574773692631579,-48.313903,55.475998,-124.0436575,10.274656973120573,1.198876414479532,144.21812540897068,6.638000000000295,25.53400000000029
61300,61300.0,0.412206271,-7.157143615,-0.4767028775,0.2172370952,-0.346144868,-0.35819320600000004,-52.13127175,54.28466825,-122.586825,7.185229608400142,0.5454380753614749,143.84776765152228,6.5861406250002945,25.52014062500029
61400,61400.0,1.6274406380000002,-9.0681879,-2.7016914,0.446596525,-0.592914584,-0.01171646135,-53.5556775,54.0641775,-124.2130275,9.605229030597842,0.7443994769194262,145.67126305526438,6.534281250000293,25.506281250000296
