Unnamed: 0,st,ax,ay,az,gx,gy,gz,mx,my,mz,AccTotal,GyrTotal,MagTotal,lat,lng
11000,11000.0,1.3785094999999998,-9.5652894,1.34295352,0.11065674,0.0140197754,0.23095703199999998,-33.5236368,39.46937545,-136.2390155,9.757005536664323,0.256566922937585,145.74897679006085,33.19,32.63
11100,11100.0,1.27867428,-9.534643199999998,1.17008972,0.115557862,0.093063356,0.29444885000000004,-32.78022780000001,39.7218322,-136.6018665,9.690994903392404,0.3304650233695903,145.98794020671872,33.141191176470585,32.61695588235295
11200,11200.0,1.09957884,-10.190176199999998,1.08222658,0.0190490726,0.39304199,0.238629148,-31.642685399999998,39.968948700000006,-137.271422,10.306849239902457,0.4605918811809862,146.43183187438186,33.09238235294117,32.60391176470589
11300,11300.0,0.42226868,-11.2991666,1.54046936,-0.073410035,-0.011117554000000002,0.11080017199999999,-30.6725309,40.246658700000005,-137.148208,11.414458310566113,0.14222952931254962,146.18565294666578,33.04357352941176,32.59086764705884
11400,11400.0,0.5191734425000001,-9.390214199999999,0.20725860565,-0.470646664,0.3706184365,0.02349319445,-30.41320805,40.93421925,-136.533664,9.407871341474737,0.5996757856579037,145.74641345070356,32.994764705882346,32.57782352941178
11500,11500.0,0.3857482935,-10.18460795,-0.95398559,-1.0757774625,-0.01383361835,-0.5003448460000001,-31.15743033333333,41.969808,-134.24835,10.237256431068706,1.1867681241023054,144.06570624717415,32.945955882352926,32.564779411764725
11600,11600.0,-0.7434768625000001,-10.8802385,-0.15371856709999998,-1.3247329250000002,0.44092483600000004,-0.6420242389999999,-33.32763610000001,42.9644777,-129.123231,10.911568780443703,1.5374474993530456,140.105746510746,32.89714705882352,32.55173529411767
11700,11700.0,1.27633133,-9.108296000000001,-0.293540951,-0.619677731,-0.22183532949999998,-0.47510299850000004,-35.3636166,43.380125899999996,-126.13678119999999,9.202490286633903,0.8160190532277678,137.9963716405468,32.84833823529411,32.53869117647061
11800,11800.0,0.41076736700000005,-8.9284853,-1.48753813,0.07865524274999999,-0.442336265,-0.5842384304999999,-37.7479549,42.8878778,-125.17700249999999,9.061219815753443,0.7383495844299429,137.5993178314967,32.799529411764695,32.52564705882356
11900,11900.0,1.310507165,-8.6398636,-1.62490461,0.1367134035,-0.2996986345,-0.45619431200000005,-39.8542785,42.266234999999995,-125.2104168,8.888547432682069,0.5631197689161492,138.03063677004258,32.75072058823528,32.5126029411765
12000,12000.0,1.95120086,-8.8560075,-2.35657349,0.085302733,-0.48227996799999995,-0.0615676877,-41.2298584,41.9628906,-125.4020685,9.37051787583644,0.4939613087798623,138.51523089353154,32.70191176470587,32.49955882352945
12100,12100.0,3.37659458,-9.8954422,-2.86114655,0.119509886,-0.360205084,-0.14486847,-41.715545500000005,42.0295715,-124.73464750000001,10.84014438549438,0.40690621572687896,138.07755330021962,32.65310294117645,32.48651470588239
12200,12200.0,1.66844027,-7.4418701,-1.07005008,0.36142273,-0.304702762,0.09566955599999998,-42.27416955,42.369459899999995,-124.78118799999999,7.703949322250105,0.4846475617024919,138.3931016364253,32.604294117647036,32.47347058823534
12300,12300.0,1.306565843,-14.672240900000002,-5.477416799999999,0.632855221,-0.305984493,0.72609711,-40.3538506,42.938232,-126.45492549999999,15.728633613956196,1.0130602045411587,139.51023980201774,32.555485294117624,32.46042647058828
12400,12400.0,-2.99306643,-6.14960177,2.982026637,0.037692260499999984,1.011955264,0.10749969480000003,-39.7183987,43.06373645,-127.84835749999999,7.529727931917208,1.0201693206363385,140.6316230071375,32.50667647058822,32.447382352941226
12500,12500.0,3.3883255,-11.1413836,-0.42947387299999995,0.452723696,0.555381775,0.276869205,-38.1602495,43.005448,-129.601057,11.65332393601965,0.7753811246200609,141.78216413907498,32.457867647058805,32.43433823529417
12600,12600.0,1.696212737,-10.44635465,1.25280458,0.414471445,-0.70875702,0.381265258,-37.39708025,43.0100254,-131.745068,10.666020694947758,0.9064036702844648,143.5450569188049,32.40905882352939,32.421294117647115
12700,12700.0,-0.13224029399999998,-9.5979647,0.47206726600000004,0.373043822,0.07121734589999999,-0.26502686,-37.41188065,42.69821175,-133.004762,9.611149405573324,0.46528458523514704,144.6136930297438,32.36024999999998,32.40825000000006
12800,12800.0,0.5843475320000001,-9.3308887,1.68974918,0.191839603,0.55410309,0.1233596767,-37.40921025,42.416229,-134.6499635,9.506742395454692,0.6000126709606257,146.04520594138125,32.311441176470574,32.395205882353004
12900,12900.0,1.0914351999999998,-9.6905073,0.202711487,0.26044006000000003,0.344895922,0.18003997649999998,-36.40769925,42.4456787,-136.13174700000002,9.754086993167887,0.468814132148304,147.17036081228744,32.262632352941154,32.38216176470595
13000,13000.0,1.29207764,-9.006836199999999,1.2016907,0.267578113,0.124174501,0.36817017,-35.1407635,42.100525,-136.95991750000002,9.178433006350517,0.4721611610681509,147.53100041629924,32.21382352941174,32.36911764705889
13100,13100.0,0.925042727,-10.1658722,0.7724121100000001,0.17393646599999998,0.145370485,0.34387359500000003,-33.817826000000004,42.538374499999996,-138.1657395,10.237694144842596,0.4125766668526661,148.4686361776448,32.16501470588233,32.35607352941184
13200,13200.0,1.1533958475,-9.52034105,1.591881605,0.127127836,0.399700926,0.244223026,-32.34228842105263,42.6002102631579,-138.76246,9.721630973978334,0.4853993175025226,148.71416014417866,32.116205882352915,32.34302941176478
13300,13300.0,0.4904449495,-11.18292585,1.677656535,0.07864685400000003,-0.04366531335000001,0.124752045,-31.786499,42.6419064,-139.75280999999998,11.319109215108517,0.15627388216367988,149.53128456505468,32.0673970588235,32.32998529411773
13400,13400.0,-0.11703491050000005,-10.10344885,-1.4731155335,-0.612232225,0.2319786065,-0.1989257805,-32.0391846,43.226928,-138.96087400000002,10.212532930402217,0.6844215321086964,149.0146141067812,32.01858823529409,32.31694117647067
13500,13500.0,-0.3939758274999998,-9.53373705,-0.8218818775000001,-1.82731479,-0.123033139,-0.916814445,-33.741455200000004,44.902954,-134.258422,9.582249357376666,2.0484843317964256,145.53511864432082,31.96977941176468,32.30389705882361
13600,13600.0,-0.20950240899999997,-11.8743788,0.6622238169999999,-1.16903915,0.37770462299999996,-0.8894935620000001,-37.168884399999996,45.504761,-128.555296,11.89691746485484,1.5168116873389097,141.34639699583158,31.920970588235264,32.29085294117656
13700,13700.0,0.8480117925,-8.46054515,0.3287017815,0.0008384706300000044,-0.57458648975,-0.808844765,-40.0424196,44.67864960000001,-126.4727784,8.509556699242141,0.9987833328244209,139.9827831442217,31.872161764705854,32.277808823529504
13800,13800.0,-0.60580674,-7.5655893,-0.81948547,0.30710143700000003,-0.57032545,-0.189338681,-42.6348876,43.803406,-126.4697256,7.635323423853346,0.6755576328822511,140.46737966220363,31.82335294117644,32.26476470588245
13900,13900.0,2.5131226000000004,-9.243988,-2.8959808,0.18437195,-0.2834015,-0.0012664795,-43.104553,43.7512212,-126.74163700000001,10.007687252344741,0.33809914244105443,140.8389843072566,31.77454411764702,32.25172058823539
14000,14000.0,4.1112519999999995,-9.571991,-2.0615997,-0.0052337646,-0.59658813,-0.16531372,-43.2394412,43.8439932,-126.19659399999999,10.619585586764916,0.6190907971929671,140.4191120283112,31.72573529411761,32.23867647058834
14100,14100.0,-3.0067139,-9.551636,-1.6102905,0.45602417,0.26200867,0.53775024,-43.458862200000006,43.81134,-127.082826,10.142342640994707,0.7521847561599581,141.27369144982623,31.6769264705882,32.22563235294128
14200,14200.0,4.6475525,-10.435103999999999,1.2639465,0.16520691,0.94911194,0.14041138,-40.7531736,44.613342200000005,-127.8524784,11.492984837975493,0.9735615817172616,141.41245139182976,31.628117647058787,32.212588235294234
14300,14300.0,0.5857849,-10.504532000000001,-0.11152649,0.65415955,-0.19071960000000002,0.5686493,-40.042114399999996,44.3539428,-130.101014,10.521443562841732,0.8875025121490376,143.16759894779318,31.579308823529374,32.19954411764717
14400,14400.0,-0.37788390000000005,-8.796265,2.298233,0.31646729999999995,-0.14065552,0.28315735,-38.3901978,44.4256588,-131.428832,9.099392788224565,0.4473405996942184,143.9480959587277,31.53049999999996,32.186500000000116
14500,14500.0,0.712677,-9.478622,1.2615508999999998,0.48265076,-0.09272766,-0.08648682,-37.91107279999999,44.0142816,-133.411256,9.588727454594997,0.4990292026438589,145.50973068541032,31.48169117647055,32.17345588235306
14600,14600.0,-0.2309959445,-9.2809763,1.2959022,0.206105043,0.2814491255,0.0280204771,-38.019181,43.590088,-134.8253625,9.37483742762841,0.3504774171161432,146.70880723329643,31.432882352941128,32.160411764706005
14700,14700.0,0.409088905,-9.383268725,0.877810675,0.24531783699999998,0.14434814699999998,0.210605618,-37.34703065,43.33816615,-135.4383075,9.433408626761198,0.3541818042249541,147.02562610441322,31.384073529411715,32.14736764705895
14800,14800.0,1.79330364,-9.46598355,1.17218014,0.14421310799999998,0.0879432698,0.1206451425,-36.48452735,43.3704387,-136.4772815,9.70570352448623,0.20777330476606276,147.77755161141894,31.33526470588231,32.134323529411894
14900,14900.0,-0.172690585,-9.4555115,1.5126999,0.139059446,0.04646301295,0.24970321350000002,-36.05133055,43.23310875,-137.0057695,9.577506333751288,0.2897420646231469,148.11980613820754,31.286455882352897,32.12127941176484
15000,15000.0,0.8965561049999999,-9.8385907,1.1970901935,0.120201874,0.34100188800000003,0.345529174,-34.4065096,43.5102842,-137.74765200000002,9.952063711824902,0.5002627266767684,148.49734229003937,31.237647058823484,32.10823529411778
15100,15100.0,1.85974578,-10.2746273,1.318829355,-0.0955200175,0.5033416485,0.24352416649999997,-32.31498645,43.64555350000001,-138.06076149999998,10.524662651753047,0.5675591402626324,148.35792491460597,31.18883823529407,32.095191176470735
15200,15200.0,1.90475772,-11.9098156,0.5447265560000001,-0.25514831600000004,-0.38492585,-0.377833546,-32.01423615,44.08142095,-137.22679,12.088672175075931,0.5976404275330313,147.64600607222084,31.140029411764655,32.08214705882367
15300,15300.0,-1.2023270000000001,-9.2637424,-0.2707382255,-1.83077696,0.039271545299999995,-0.84985504,-34.9934386,44.828796000000004,-133.0554215,9.35189353451842,2.0189351842037317,144.7010679357311,31.091220588235245,32.06910294117662
15400,15400.0,0.59572599,-12.1761613,-0.13079528699999998,-1.17489474,0.09305725279999999,-0.6067688,-37.43782075,45.2968597,-126.404955,12.193342372436602,1.3261529919560424,139.39742440871112,31.04241176470583,32.05605882352956
15500,15500.0,-0.5665451132,-8.039823599999998,-0.321737667,-0.08470764189999999,-0.066508484,-0.56128084,-39.904708899999996,44.6714778,-123.8371265,8.068646429603078,0.5774509716602233,137.56313661257008,30.993602941176423,32.0430147058825
15600,15600.0,0.6305541880000001,-7.8208694099999985,-0.869526674,0.20674591,-0.491447447,-0.352911384,-41.36512685,44.31808415,-123.4652712,7.900333323213259,0.6395758218033791,137.5459586540675,30.944794117647014,32.02997058823545
15700,15700.0,2.68250271,-9.457906900000001,-2.41127476,0.19630889999999998,-0.1269119242,0.0238739015,-41.8970484,44.00962855,-123.58612,10.122833945315746,0.2375692278180937,137.71638641758332,30.895985294117594,32.016926470588395
15800,15800.0,3.30434571,-8.8911388,-2.237341295,0.3129562355,-0.23679809350000003,-0.16958618,-42.221527,44.11674495000001,-123.86558475,9.747385182536737,0.4279601070235427,138.1001679098865,30.847176470588177,32.00388235294134
15900,15900.0,2.0478118700000003,-10.09063465,-2.75083774,0.40701294,-0.5556793175,0.158520511,-42.403717,44.174194,-124.9376655,10.659693702876748,0.7069494374414085,139.13618049326092,30.798367647058768,31.99083823529428
16000,16000.0,0.004775239500000028,-10.955354275,-1.89029467,0.591316991,-0.09325027330000002,0.494871519,-41.45790175,44.65888965,-126.36497299999999,11.126009171231098,0.7917169832716935,140.29022591677744,30.74955882352935,31.977794117647218
16100,16100.0,0.4156204225,-8.84947815,0.37180863,0.1395873995,0.667506415,0.057162475549999994,-40.4308312,44.80026325,-126.821748,8.910319600879312,0.6872090658921314,140.4474980792543,30.700749999999946,31.964750000000162
16200,16200.0,1.539991765,-9.5915084,-0.134928889,0.5547187725,0.1558120726,0.4165214495,-39.0056619,45.0550087,-128.289717,9.719376123274683,0.7168145027327476,141.4560415081969,30.651941176470533,31.951705882353107
16300,16300.0,0.41316679999999995,-9.77238905,0.7854667609999999,0.351517485,0.02638397225,0.2015625005,-37.959289500000004,45.355225,-130.26657,9.821426307439966,0.4062972485109597,143.06430114794918,30.60313235294112,31.938661764706048
16400,16400.0,0.35708313700000005,-9.58719375,1.3817429,0.48047257549999994,0.1478729221,0.05934600860000001,-37.3344415,45.264435,-132.037355,9.693376231950404,0.5095729855702167,144.4877821116189,30.554323529411704,31.92561764705898
16500,16500.0,1.02727352,-9.5502078,0.91990052,0.239135746,0.374505614,0.008108520400000001,-36.947632,44.69986,-133.312225,9.651742106025434,0.444738754636492,145.38005395775014,30.505514705882288,31.91257352941193
16600,16600.0,0.581481936,-9.7948852,0.9749603240000001,0.14261779800000002,0.18894043,0.0977966312,-36.51352,44.79599,-134.28421500000002,9.861048443511486,0.2561804117275725,146.19225014531247,30.45670588235288,31.89952941176487
16700,16700.0,1.05026852,-9.6739808,1.23210142,0.139422608,0.20001220399999997,0.23500061,-35.88562,45.07904050000001,-134.94796499999998,9.809339821801704,0.3387232161783877,146.73400539404545,30.407897058823465,31.886485294117808
16800,16800.0,0.617868044,-9.9282534,1.09921878,0.17586059399999998,0.0719757072,0.26782225600000004,-34.521484,45.0744625,-135.62698500000002,10.008697333940805,0.3294923239668485,147.03104375947245,30.359088235294053,31.873441176470752
16900,16900.0,0.68059996,-9.4314546,1.1377746400000002,0.10938720800000001,0.299932858,0.23734741399999998,-33.306121999999995,45.212555,-136.38458500000002,9.52431209542871,0.39855147426322574,147.49318031443346,30.31027941176464,31.86039705882369
17000,17000.0,1.4936645199999998,-10.355611999999999,1.60726928,0.07934875499999999,0.39644470000000004,0.281451414,-31.848144,45.6329345,-137.15515499999998,10.586016705627353,0.4932081838636327,148.01469317883289,30.26147058823523,31.84735294117663
17100,17100.0,0.118914792,-12.1378632,-0.157736206,-0.121984864,-0.197753908,-0.14721374199999998,-31.461334,46.1517335,-137.25815,12.142974197792634,0.2885731067845176,148.18772775778766,30.21266176470581,31.83430882352957
17200,17200.0,0.7584686199999999,-9.7027775,-1.153903975,-1.341880825,0.3190078725,-0.71712494,-32.814026500000004,46.951294,-133.966065,9.80249914487997,1.5548880131431386,145.69972659583695,30.1638529411764,31.821264705882516
17300,17300.0,-1.01024242,-11.68337275,0.150634769,-1.3754348749999998,0.04310226425,-0.697689055,-36.447907,47.4685665,-128.366085,11.73479006590673,1.5433125649602402,141.63283306808393,30.11504411764699,31.80822058823545
17400,17400.0,0.762962345,-9.09494,-0.2764205925,-0.3469200125,0.09449768050000001,-0.666790005,-39.252472,47.04132,-124.20501499999999,9.132160130787431,0.7632090241346491,138.4945878242611,30.06623529411757,31.795176470588395
17500,17500.0,0.4903144825,-7.7086982750000015,-1.0090561,0.18438339,-0.4442596475,-0.395416265,-41.6893005,46.39205850000001,-123.957825,7.800220824751973,0.6237443049117571,138.76541924690613,30.017426470588163,31.782132352941336
17600,17600.0,2.355701425,-9.01294325,-2.0556145,0.11727142375,-0.30870819250000003,-0.0979461675,-42.9595945,46.2112425,-124.23401,9.540382154140222,0.3464384840965906,139.33830769276312,29.96861764705875,31.76908823529428
17700,17700.0,2.3515079263157888,-8.701572289473685,-1.9865056210526315,0.18090177842105265,-0.4772836826315789,0.06550758799999999,-43.1533815,46.163940000000004,-123.988345,9.232275457716144,0.5148412439960387,139.16334137852232,29.919808823529333,31.756044117647214
17800,17800.0,3.03768459,-9.8882661,-3.67924651,0.1084228525,-0.506892384,-0.206542967,-43.346405,45.59784000000001,-124.28818000000001,10.981070012023402,0.5586452480249646,139.30420305501772,29.870999999999924,31.743000000000162
17900,17900.0,-0.39966887,-11.0146227,-1.58575746,0.470082094,0.0009231557999999988,0.5594894429999999,-43.253326,46.072387,-124.6208175,11.16386367119336,0.7370448760579449,139.7283524303699,29.822191176470515,31.7299558823531
18000,18000.0,-0.227879329,-7.47167822,0.8738021699999999,0.512271128,0.614614871,0.054974365100000006,-42.23404,45.740509,-125.999452,7.583418501073972,0.8054565880096985,140.5411591106685,29.773382352941102,31.71691176470604
18100,18100.0,0.965266452,-9.9932466,-0.0346755983,0.43599855,0.472084045,0.298703006,-40.930939,45.838165,-128.433225,10.048458352261322,0.7244034636129353,142.3787451633653,29.724573529411693,31.70386764705898
18200,18200.0,1.98950191,-9.9782855,3.27232207,0.497779845,-0.251232909,0.43464356600000004,-39.49333285,45.83183295,-129.935683,10.710662250529477,0.7127249436601973,143.33071140518274,29.675764705882273,31.690823529411922
18300,18300.0,0.40777434799999995,-9.6168809,0.47277832399999997,0.463691731,0.008798216800000008,-0.072746276,-38.85070775,45.28076135,-132.51067799999998,9.642931453678832,0.4768601253788866,145.3231634985227,29.626955882352856,31.677779411764863
18400,18400.0,0.18343506399999998,-9.402597300000002,1.63528291,0.11301269550000001,0.233782957,0.0233352661,-39.084472600000005,44.9074549,-133.5633885,9.54920523626247,0.2629879623597953,146.23089475309112,29.578147058823447,31.664735294117804
18500,18500.0,0.5634658794999999,-9.8197987,0.8272453390000001,0.190347291,0.3431365855,0.264991761,-38.1768033,44.637985,-134.82047949999998,9.877088430342528,0.4752437001486198,147.06024520138328,29.529338235294038,31.65169117647075
18600,18600.0,0.7877937349999999,-9.762090325,1.248683125,0.1252616895,0.303884875,0.1022750865,-36.96319525,44.3872831,-135.440981,9.875502725100894,0.34479910323616664,147.24399152714383,29.48052941176462,31.63864705882369
18700,18700.0,0.225281519,-9.3811184,1.35893636,0.10224533289999999,0.3042549125,0.12235260075,-36.13197325,44.4188685,-136.1933875,9.481818107991023,0.34425921285243,147.74029597869963,29.431720588235212,31.62560294117663
18800,18800.0,1.17189179,-9.664047300000002,1.1817688,0.045146942300000006,0.54926224,0.24779128900000005,-34.8900602,44.32830815,-136.72302000000002,9.807257040290017,0.6044462691249526,147.90390946879117,29.382911764705803,31.61255882352957
18900,18900.0,2.181645975,-10.708279800000001,1.25813522,-0.048225402599999995,0.314105225,0.25753326400000004,-33.285140999999996,44.456482,-136.86188,11.001226664192442,0.4091003879492928,147.7007320022871,29.334102941176386,31.599514705882513
19000,19000.0,1.74847256,-10.3098837,1.31661451,-0.3844696045,-0.2789848315,-0.10097885125,-32.901763800000005,44.50447085,-136.4358565,10.551286668265726,0.4875170086315671,147.23427803326538,29.28529411764697,31.58647058823545
19100,19100.0,0.5249099855,-9.5174073,-1.177364355,-1.20147704,-0.053520965149999995,-0.645806905,-34.3983468,44.65683075,-133.3721895,9.604446926277364,1.366307849511742,144.7970375053328,29.23648529411756,31.573426470588387
19200,19200.0,-1.4049896000000002,-12.0305938,-0.425643922,-1.28695986,0.247100832,-1.0609985240000002,-37.8702555,44.28833035,-127.8442395,12.127831062666786,1.6881594913511686,140.49865480964883,29.187676470588144,31.56038235294133
19300,19300.0,0.613323972,-9.3045594,-0.34519652799999995,-0.545538316,0.187658694,-0.8475158840000001,-41.2212377,43.3200066,-124.86640919999999,9.333097101454172,1.0293361956614224,138.44756734803406,29.13886764705873,31.547338235294276
19400,19400.0,-0.138223276,-7.7193603,-0.397634886,0.308804328,-0.97795106,-0.5620239180000001,-43.33503765,42.07176185,-123.58604225,7.759201316714575,1.1726853444368337,137.55555959140466,29.09005882352932,31.53429411764721
19500,19500.0,2.74559324,-8.520694,-2.55026548,0.24147949600000002,-0.75488586,0.12634888,-44.27856515,41.81129470000001,-123.21670525,9.316664792100363,0.8056483170465281,137.44508559451427,29.041249999999906,31.52125000000016
19600,19600.0,3.32762456,-9.3584258,-2.17317504,0.237850952,-0.48175658,0.23288269,-43.74565115,41.7649833,-123.1605542,10.178192318997263,0.5860296774115386,137.20981375928292,28.99244117647049,31.508205882353096
19700,19700.0,-1.59844285,-9.26427245,-1.0404175100000002,0.758616637,-0.15791167835000006,0.484438325,-43.0271149,42.1015162,-124.361876,9.479857415406231,0.9265028126434348,138.16571812112338,28.94363235294108,31.49516176470604
19800,19800.0,4.117957265,-9.66447265,-0.11254732,0.25926666200000004,0.532267763,0.247420501,-40.731429999999996,42.80021645,-125.98594650000001,10.569550525819624,0.7243337696447466,139.15247884110659,28.894823529411674,31.482117647058978
19900,19900.0,0.9673034829,-10.50986085,-0.58187257,0.567077635,-0.24675827130000005,0.262223053,-40.5080415,42.6062771,-127.28073149999999,10.621385208651553,0.6870625837784874,140.20202069425414,28.846014705882247,31.469073529411922
20000,20000.0,-0.7919593914999999,-9.05915705,1.799647545,0.5269096320000001,-0.0488296508,0.1136177066,-40.0836188,42.13562,-129.57092400000002,9.289859054559141,0.555463351977491,142.023828239959,28.797205882352838,31.45602941176486
20100,20100.0,1.363784025,-9.9544661,0.09910278549999997,0.5248878315,-0.112109377,0.1839225795,-39.7210696,42.08312960000001,-131.143796,10.05348964447149,0.5683195586193066,143.34388640492347,28.74839705882343,31.4429852941178
20200,20200.0,0.7710990834999999,-9.45760985,1.056906125,0.2442970255,0.12837677449999998,0.1198020925,-39.3756104,41.7648312,-132.45452799999998,9.548520983920161,0.301668027162401,144.3570908023973,28.69958823529402,31.429941176470738
20300,20300.0,0.6720367435,-9.75365745,0.52790374,0.2623016375,0.09465637205,0.151542664,-38.9678958,41.53747620000001,-133.03588599999998,9.795663315373275,0.31855211313432474,144.7151242884659,28.650779411764606,31.416897058823682
20400,20400.0,1.25795745,-9.4265365,1.6643753,0.06400299000000001,0.35575867,0.145736695,-38.17535400000001,41.841431,-134.150998,9.655461438484963,0.3898088940358463,145.617916700284,28.601970588235194,31.403852941176623
20500,20500.0,0.323623655,-9.371475,1.53029635,0.13591003499999998,0.32699585,0.304458625,-37.223205,41.952515000000005,-135.01128799999998,9.50166287472652,0.4674513517612896,146.19733067378118,28.553161764705774,31.390808823529568
20600,20600.0,1.3800659,-10.151390500000002,1.7218323,0.14762878499999998,0.3893127400000001,0.37264252,-35.2529908,41.905822,-135.516052,10.388786695899316,0.5589504107512508,146.16274856079497,28.50435294117636,31.3777647058825
20700,20700.0,1.60032655,-11.162338499999999,1.04367065,-0.0734176625,0.032981872,0.01737213125,-34.5144656,41.8466186,-136.20696999999998,11.33294045605227,0.1022764858124744,146.61096294633776,28.455544117646948,31.36472058823545
20800,20800.0,1.17595675,-9.7222215,-0.8022537000000001,-0.81217195,-0.01016235335,-0.25373077,-35.1367192,42.4139404,-134.98932,9.835164525237456,0.8510301379715007,145.7932752998242,28.406735294117542,31.351676470588387
20900,20900.0,-0.6747066095238096,-10.204518095238095,-0.2817985857142857,-1.5144696666666666,-0.2866479790476191,-0.9392031809523811,-37.533264200000005,43.03131,-130.050966,10.239070034423063,1.8065753618090492,142.03504099196502,28.35792647058813,31.338632352941328
21000,21000.0,-0.652973163,-11.6320796,-0.6912231575000001,-1.03454894,0.44854354799999996,-0.834833528,-40.80779980000001,42.39013600000001,-126.173704,11.68517949676752,1.4030987222773683,139.21996224951906,28.309117647058716,31.32558823529427
21100,21100.0,1.099758905,-8.59611995,-0.5743850500000001,-0.22148971550000002,-0.3371475065,-0.592761234,-43.387452,41.5429686,-123.87603600000001,8.694558575084244,0.7352477489491073,137.6723177728084,28.2603088235293,31.31254411764721
21200,21200.0,-0.19724313631578946,-7.5265840157894734,-1.415920852631579,0.29841934684210525,-0.6417814647368421,-0.3986744210526316,-45.2523804,40.5279544,-123.222656,7.6709197896771775,0.8144642405670108,137.38361685164514,28.21149999999989,31.299500000000148
21300,21300.0,1.80023955,-8.028328,-1.8592987,0.17692566,-0.45011902,0.11483764699999999,-45.6396482,40.358888,-122.85613799999999,8.438119105947859,0.5017982809724484,137.13300777778082,28.162691176470474,31.286455882353092
21400,21400.0,4.0118866,-10.366867,-3.0833283,0.448036195,-0.662109375,0.41790772,-44.452514799999996,40.656434000000004,-123.218078,11.53913779493568,0.9041113779733312,137.15580861257124,28.11388235294106,31.273411764706033
21500,21500.0,-1.189514165,-9.188324,-0.6538162350000001,0.6333847,0.38079071,0.1819610615,-44.281921999999994,40.809326399999996,-123.9273084,9.315747201413082,0.7679095519022149,137.7834401560871,28.06507352941165,31.260367647058967
21600,21600.0,1.322601335,-10.104103,-1.50315095,0.17691803,0.717414855,-0.024169922000000003,-43.48876920000001,41.093750799999995,-125.0744624,10.363317100571027,0.7444804244808519,138.6492686247909,28.01626470588224,31.24732352941191
21700,21700.0,0.015334257894736638,-9.303401684210526,0.1031277315789475,0.6111586721052632,-0.21348893157894736,0.6800448763157895,-42.346802,41.001587,-126.925354,9.380696218596194,0.9391762688211016,139.94499265877673,27.967455882352823,31.234279411764856
21800,21800.0,0.11550750865000002,-9.8449287,0.565314468,0.38443298299999995,-0.1780998245,0.084751892,-41.187744,41.078796000000004,-129.06708,9.869826661079443,0.4363386227927888,141.57054725558487,27.91864705882341,31.2212352941178
21900,21900.0,0.5373016225,-9.47227755,0.1836791995,0.50177382,0.325183865,-0.1338424695,-41.3330082,40.6149292,-130.99761999999998,9.491048602433118,0.6147801969833407,143.24247767734363,27.869838235293997,31.208191176470734
22000,22000.0,0.895181295,-9.8610931,1.100292205,0.3346839975,0.44310912700000005,0.1854164095,-41.107482,40.3561412,-132.785032,9.965826762148449,0.5867376250394595,144.74224114089995,27.821029411764584,31.195147058823682
22100,22100.0,0.970055397,-9.60575125,0.77732542,0.30731353250000004,0.264625545,0.264145653,-39.6130376,40.354614,-134.488834,9.687801560503175,0.4839992883142756,145.8940255167931,27.77222058823517,31.18210294117662
22200,22200.0,1.250179275,-9.73204265,1.47571108,0.165313721,0.28315963400000005,0.2593429555,-38.5046382,40.201111600000004,-135.53894,9.922515814016117,0.4182741019614918,146.524900662254,27.723411764705762,31.169058823529557
22300,22300.0,1.06798094,-9.725936599999999,1.13250122,0.09127197199999999,0.389199832,0.197293092,-37.262574,40.482484,-136.571958,9.849941351205556,0.4470800325128853,147.23877678234103,27.674602941176342,31.1560147058825
22400,22400.0,1.4350098,-10.480593800000001,1.43944398,-0.08150635,0.59884948,0.283151248,-35.70617640000001,40.47790480000001,-137.57506999999998,10.680739926429077,0.6698328072576729,147.784702242937,27.62579411764693,31.142970588235446
22500,22500.0,1.77067872,-12.256845199999999,0.09724731399999996,-0.275814818,-0.25144652999999995,-0.298907468,-35.137634399999996,40.86883579999999,-136.804508,12.398000036197862,0.4799926784568042,147.03877435104917,27.576985294117517,31.129926470588387
22600,22600.0,-0.8229645000000001,-9.2731996,-0.7627441559999999,-1.95680542,-0.039880371100000006,-0.6907074000000001,-37.4227908,41.678467,-132.638854,9.361244123042994,2.076731944537039,143.98318296400106,27.528176470588107,31.11688235294132
22700,22700.0,0.035836794000000005,-11.2989288,-0.12852783199999998,-1.14677428,0.176791382,-0.7450378599999999,-39.911804,41.7269904,-127.30193999999999,11.303184497866633,1.3794875728857912,139.78553913996114,27.47936764705869,31.103838235294266
22800,22800.0,0.298486332,-8.2563752,0.19133606240000006,-0.042095945799999986,-0.018786624,-0.8017089959999999,-42.3764036,40.9939576,-125.32898,8.268013978069067,0.8130509485012738,138.50580194423486,27.43055882352928,31.09079411764721
22900,22900.0,-0.66422122,-7.912097,-1.55235594,0.41064454,-0.608306872,-0.45379334,-44.441223,39.927673,-125.401306,8.113918277372855,0.8667004718931695,138.90546756494612,27.381749999999872,31.077750000000147
23000,23000.0,2.35917358,-8.3803952,-1.60048216,-0.009069824000000004,-0.118499754,0.0743652328,-45.005798999999996,39.797667600000004,-125.222474,8.858250159723251,0.148890907456374,138.88879869374358,27.332941176470452,31.064705882353092
23100,23100.0,2.9797454400000003,-9.3591496,-2.10206602,0.47966612,-0.507110594,0.45210266,-44.219665899999995,40.084304700000004,-125.786821,10.062862544790043,0.8368253990327414,139.22809990279146,27.284132352941047,31.05166176470603
23200,23200.0,-0.15856934000000011,-8.2152004,-2.06016846,0.258520512,0.596084584,-0.14486999499999995,-43.91792315,39.927597,-126.262895,8.675837162679766,0.7261618548840563,139.5182253842277,27.23532352941163,31.03861764705897
23300,23300.0,4.566867,-10.4626372,-0.6090362399999996,0.14113159,0.3915466119999999,0.27463379,-42.53898695,40.45692425,-127.75177350000001,11.683648158865015,0.94331454769396,140.5947024116245,27.186514705882214,31.02557352941191
23400,23400.0,-0.3906867799999998,-10.143431800000002,-0.819256581,0.4762092585,0.03969573889999999,0.6230789274999999,-41.1293796,40.18318145,-129.973526,10.359775186336922,0.7895565988498663,142.12516877532818,27.137705882352805,31.012529411764852
23500,23500.0,0.12742233155,-9.82954465,1.59847795,0.33682174950000004,0.10499115404999998,0.110051726,-40.02052405,40.43312075,-132.2454055,9.959625942333831,0.4305820957462838,143.96298611220374,27.08889705882339,30.9994852941178
23600,23600.0,1.318355595,-9.7019996,-0.042577362,0.37575149700000005,-0.07466278025,-0.11003570805,-39.86465375,39.81681855,-134.564514,9.797190635767832,0.4025608935092377,145.88426446871927,27.04008823529398,30.986441176470734
23700,23700.0,0.2067291255,-9.415175,0.975437151,0.17266007,-0.042550660149999996,0.14562378050000002,-40.00289915,39.7484597,-134.88593799999998,9.472383784842096,0.2341120971160911,146.19986611699676,26.99127941176457,30.973397058823675
23800,23800.0,1.09724805,-9.87222665,0.3120094315,0.32968445,-0.06581726230000001,0.293706503,-39.115601,39.1738888,-135.832674,9.940569422478324,0.4484926046225063,146.68040318060466,26.942470588235153,30.960352941176616
23900,23900.0,1.240126795,-8.9609913,1.1767394825,0.1655265815,0.05258560255,0.2991325355,-37.8605648,39.302977899999995,-136.63910199999998,9.124227753887713,0.3460517223323131,147.13392372975085,26.89366176470574,30.947308823529557
24000,24000.0,0.18212432970000006,-9.6256198,1.0359504745,0.1593460085,0.23239669649999997,0.192079926,-37.0469661,39.3113711,-137.731783,9.684861523648927,0.34408767781555266,147.94566882625156,26.844852941176327,30.934264705882498
24100,24100.0,2.55249941,-9.6756548,0.65773618,0.172984308,0.546977236,0.232237243,-35.2648928,39.2858881,-138.646241,10.03132374616609,0.6209838214409301,148.35707116019734,26.796044117646915,30.92122058823544
24200,24200.0,1.7178833399999998,-12.0959592,-0.015872194000000058,-0.28752899800000004,-0.333470155,-0.318926998,-35.022583399999995,39.5780943,-138.675841,12.231159348827376,0.543795987568488,148.40507415519218,26.747235294117502,30.90817647058838
24300,24300.0,1.5589142,-9.9061035,-0.22871705,-1.52228237,-0.16026001199999998,-0.9362488000000001,-36.801759,40.6765747,-136.095732,10.068745552426577,1.794749934373319,146.73511905030432,26.69842647058809,30.89513235294132
24400,24400.0,-2.10517271,-11.284202800000001,0.379280084,-1.32978365,0.023919678499999986,-0.61912842,-40.0315854,41.9705189,-130.81238000000002,11.488169011645674,1.471372239141866,143.094293861495,26.649617647058676,30.882088235294265
24500,24500.0,1.41537478,-8.552903599999999,0.096170047,-0.156929019,0.501264962,-0.6999755700000001,-41.9583129,41.8817141,-129.667968,8.670527458315108,0.8876460182455931,142.57782921856952,26.600808823529267,30.869044117647203
24600,24600.0,0.06289367400000004,-7.914849899999999,-1.84062194,0.143472287,-0.659016419,-0.044416807819999994,-43.6663816,41.8818659,-129.568485,8.127531869352516,0.6792203686323143,142.9995436925114,26.551999999999854,30.856000000000144
24700,24700.0,2.2255577894736844,-7.91236705263158,-1.2970315631578946,0.41150947368421054,-0.0108594392,-0.018647043210526317,-43.9228831,41.8849183,-129.879914,8.323863534957399,0.4131014315480541,143.36107766375412,26.50319117647044,30.842955882353085
24800,24800.0,4.69453425,-11.0034255,-3.9156112000000003,0.10741806,-0.4354667675,0.107387545,-43.566130799999996,41.9064332,-130.81604199999998,12.588375022305875,0.4632792972705765,144.107724500171,26.45438235294102,30.829911764706026
24900,24900.0,-0.7444877874999999,-7.67249675,-0.9623641875,0.303417205,0.3696098325,0.21817017674999994,-44.0576171,41.797028000000005,-131.34063999999998,7.800676215937715,0.5384924565929647,144.70140020435414,26.405573529411612,30.81686764705897
25000,25000.0,4.52754595,-12.593777000000001,-3.088123325,0.3308563275,-0.18193435700000005,0.2711715725,-41.892853,43.0395508,-132.36023,13.740591885888314,0.5337467696135247,145.35009228682767,26.356764705882203,30.80382352941191
25100,25100.0,-0.9749297975,-8.663993875,-0.2004051000000001,0.4948997675,-0.2519836425,0.5529327424999999,-41.28677329999999,43.398284499999995,-135.113375,8.79351444549689,0.7876860500884084,147.79607128418562,26.307955882352786,30.790779411764852
25200,25200.0,-0.445213305,-9.498371124999998,0.5387954715,0.3806533825,0.141368865,0.0698394755,-39.750671200000006,43.2533264,-136.511994,9.538637709863023,0.4197206415161341,148.61536150174743,26.25914705882337,30.77773529411779
25300,25300.0,1.1223869375,-10.14360425,0.5046768125,0.577995305,0.0180625925,0.07063674774999999,-39.5571899,43.09082050000001,-138.682865,10.22994720803803,0.5905417446658331,150.51427243622234,26.21033823529396,30.764691176470734
25400,25400.0,0.2082631952631579,-9.388264210526316,0.6180725010526316,0.20511827894736845,0.3707829542105263,-0.0948960147368421,-39.5707712,42.396698,-140.229796,9.411833750250024,0.4347240332247427,151.74891796026347,26.16152941176455,30.75164705882367
25500,25500.0,1.34619138,-9.6397518,0.715191648,0.352484132,0.136096196,0.351760864,-38.258361428571426,42.26183200000001,-141.77202428571428,9.765198983345034,0.5170220205197751,152.80412290938094,26.11272058823513,30.73860294117661
25600,25600.0,1.2056488,-9.651235799999998,1.167932126,0.17607117,0.189578252,0.34770508200000005,-36.89384475,42.11616475,-143.6607325,9.803099804520278,0.434151526218922,154.18625907994826,26.06391176470572,30.725558823529553
25700,25700.0,0.13016663064,-9.6330442,0.99842836,0.15028686800000002,0.2688324,0.13615112199999999,-35.55221525,42.08679175,-143.98002250000002,9.688928218839976,0.3388147012744179,154.16073355829633,26.01510294117631,30.712514705882487
25800,25800.0,1.09814144,-9.474304199999999,2.0846741,0.050152588600000006,0.8084960959999999,0.2264801,-33.997345,42.153929999999995,-145.18509,9.767744461737793,0.8411650795177801,154.9567354418447,25.966294117646896,30.699470588235435
25900,25900.0,1.62510378,-11.5874296,0.531082144,0.011163330120000002,0.18041077,0.14787292400000002,-31.926727000000003,42.45147675,-145.69244,11.721722513835433,0.2338763199583737,155.07357962151752,25.917485294117483,30.686426470588373
26000,26000.0,1.0691803,-10.819375599999999,-1.47885742,-1.23561707,-0.0343383784,-0.839425662,-33.19664,44.0845485,-143.89724750000002,10.973268110776424,1.4944220143677684,154.11740906011318,25.86867647058807,30.67338235294132
26100,26100.0,-2.42509539,-10.6619574,0.2260002095,-1.483872255,0.0811782825,-0.827643605,-37.2074115,46.451568,-138.40828249999998,10.94014815001436,1.7025414506484695,150.66239528678932,25.819867647058658,30.660338235294255
26200,26200.0,0.5164123775,-9.86653715,-0.1597633365,-0.5014900234999999,0.291366577,-0.67179797,-40.0489805,47.42240875,-134.6363075,9.881491358541911,0.8959803766343513,148.256223312479,25.77105882352925,30.6472941176472
26300,26300.0,0.8598014909999999,-7.703982555,-0.9016731225,0.2362541245,-0.4730743425,-0.364413455,-42.65556325,46.93908625,-134.1873175,7.8044177874233425,0.6427803640983509,148.42184664930838,25.72224999999983,30.634250000000137
26400,26400.0,1.63228607,-8.578343199999999,-2.33239139,0.132606509,-0.435202784,0.01801071135,-44.19135975,46.54655575,-134.2521625,9.04057394652665,0.4557585225780063,148.80588702354302,25.673441176470423,30.621205882353077
26500,26500.0,4.1806166650000005,-9.25966865,-1.73024442,0.009465789700000005,-0.15487823695000005,-0.05752182005000001,-44.5816045,46.6194155,-134.1220825,10.306874672747886,0.16800731295732815,148.82753627792343,25.624632352941013,30.608161764706026
26600,26600.0,3.06929926,-8.789383,-2.635668165,0.0733299276,-0.7340667559999999,-0.19270248550000002,-45.944595250000006,46.05789125,-133.8295,9.676222900292428,0.7626855777264133,148.8038357305703,25.575823529411593,30.595117647058963
26700,26700.0,-2.20464933,-10.223340199999999,-1.0182052940000001,0.59045258,0.11627959959999998,0.789044214,-45.90415925,46.18225075,-135.1493825,10.507803948846334,0.9939740092724758,150.0185152353844,25.527014705882177,30.582073529411907
26800,26800.0,0.6364303530000002,-6.91765756,2.7191376039999997,0.282592775,1.496974185,-0.12057800615999999,-44.59152225,46.39015225,-135.95161249999998,7.560929082080031,1.5284673749344466,150.41047908513394,25.47820588235277,30.569029411764845
26900,26900.0,2.19277191,-10.0856672,-0.183465575,0.485853575,0.3452133139,0.4022461,-43.06755075,46.06247075,-138.8603225,10.324376359988936,0.7321280798673991,152.50834588714423,25.429397058823355,30.555985294117786
27000,27000.0,1.54682617,-10.29923595,1.70423739,0.524945062,-0.5347000120000001,0.30158080800000003,-42.82836875,45.63980100000001,-140.05356,10.561198257562387,0.8081799218488103,153.40235179330716,25.380588235293946,30.542941176470734
27100,27100.0,0.936776732,-9.5916226,0.32542266400000003,0.395626835,-0.0635314937,-0.107794193,-42.760467,44.771575,-141.90978750000005,9.643364440001646,0.41650101431289377,154.82681374050742,25.331779411764533,30.52989705882367
27200,27200.0,0.6960433770000001,-9.6749451,1.34606168,0.251174926,0.165397644,0.1798263534,-42.678223200000005,44.0869144,-143.60351799999998,9.793180374602489,0.3531025156268559,156.1635885463293,25.28297058823512,30.51685294117661
27300,27300.0,0.90170289,-10.0061802,0.5480789159999999,0.261605835,-0.051390075779999995,0.318736264,-41.76483140000001,43.8974,-144.58434799999995,10.06207317685366,0.4158553516361377,156.76707962963482,25.2341617647057,30.50380882352955
27400,27400.0,1.17978667,-9.6092181,1.38282015,0.199513241,0.115863034,0.238740545,-40.597228,43.912353,-145.41596,9.780058565439774,0.33202298420713383,157.2332505232029,25.18535294117629,30.490764705882487
27500,27500.0,0.8046814015,-9.58624095,1.440509805,0.09340057380000001,0.3564537025,0.2761245765,-39.55030052631579,43.45261378947367,-146.06877315789475,9.72729555352898,0.4604679165167197,157.4438222557691,25.13654411764688,30.47772058823543
27600,27600.0,2.27400059,-10.155405300000002,1.375936875,0.08589477499999999,0.45376053,0.2017211945,-37.790222,43.3911146,-146.924744,10.49831369087324,0.5040170712234077,157.7903460651797,25.087735294117465,30.46467647058837
27700,27700.0,1.205402355,-12.05171945,0.29651260399999996,-0.1298789934,-0.17958602725,-0.2257148715,-37.886047600000005,43.352662,-146.601872,12.116627055823393,0.3167170585097783,157.5021189602173,25.03892647058805,30.451632352941317
27800,27800.0,1.33882756,-9.715052025,-1.76639941,-1.6070274800000002,-0.025769806350000004,-0.859072108,-40.6454472,44.33899,-143.15978800000005,9.965756366339072,1.822442941488404,155.28389470157887,24.99011764705864,30.43858823529425
27900,27900.0,-0.32036438099999986,-11.698698,-0.15300293049999994,-1.52845991,0.13514099770000002,-0.5687393224999999,-44.06860379999999,46.0113524,-135.408326,11.712513623701007,1.6365494742829485,149.64839274340753,24.941308823529223,30.425544117647195
28000,28000.0,0.392813876,-8.3465227,0.0074684137500000145,-0.161405941,0.05370025680000001,-0.658477045,-46.4480596,45.631408,-131.94671599999998,8.356911912062397,0.6835559252530146,147.1382241818264,24.89249999999981,30.41250000000014
28100,28100.0,0.26376343,-8.336578,-1.0380859,0.41447449999999997,-0.75531006,-0.2260437,-48.5665896,44.693604,-131.159054,8.405101203011666,0.8907177735945003,146.82963127078702,24.843691176470397,30.399455882353077
28200,28200.0,2.0833588,-8.89563,-3.4310913,0.19822693,-0.19178772,-0.06732178,-49.732362,43.9035036,-130.914916,9.759354717161024,0.2839166556973925,146.76359341711142,24.794882352940988,30.386411764706022
28300,28300.0,3.020691,-8.838165,-2.1310425,-0.0158844,-0.2184143,-0.017242432,-50.0378424,43.145752,-130.37811000000002,9.580139707828495,0.2196688919012536,146.16363892638196,24.746073529411568,30.37336764705896
28400,28400.0,2.2964477999999997,-8.234833,-2.569168,0.35055542,-0.6594391,-0.011917114,-50.3619386,42.74536079999999,-129.43451000000002,8.926744717322089,0.7469210444928401,145.31630826007049,24.69726470588216,30.360323529411897
28500,28500.0,-0.44252014,-11.153366,-2.2184296000000003,0.6520233,0.05001831,0.71990967,-49.511414,43.030396,-130.77453400000002,11.380458123222358,0.9725770653463174,146.3048363528454,24.64845588235275,30.34727941176484
28600,28600.0,0.6252899000000001,-7.7117004,1.036499,0.022460938,1.1227417,-0.11418152,-48.30291679999999,42.8176876,-131.411742,7.8061284062845875,1.128756323643079,146.40942757632226,24.599647058823336,30.334235294117786
28700,28700.0,1.181466645,-9.709122099999998,-0.34238662350000004,0.6138344,-0.09266662575,0.6181854,-47.2210696,42.9516614,-133.392942,9.788322978432506,0.876962470102495,147.8797555086848,24.550838235293927,30.321191176470727
28800,28800.0,0.762418365,-9.60652225,0.96095655,0.4337020825,-0.2700889615,0.2718078605,-46.0928344,42.7600104,-134.316404,9.68495499587894,0.5791357829139422,148.30329125954378,24.50202941176451,30.30814705882366
28900,28900.0,0.911692808,-9.26266165,0.011062622095,0.36180572450000004,0.27814712100000005,-0.21475067050000002,-46.4120482,41.7871092,-136.45294199999998,9.307534483295935,0.5045768045955029,150.0656730353219,24.45322058823509,30.295102941176605
29000,29000.0,0.716934195,-9.73294405,0.981008155,0.2073951705,0.1060050967,0.164006041,-46.206985894736846,41.089348842105274,-136.96770736842106,9.80871220887843,0.2853754509417124,150.2784368664559,24.40441176470568,30.28205882352955
29100,29100.0,0.15830764565,-9.43527675,0.5012626929999999,0.342777265,0.040867613350000005,0.3221923825,-45.41412325,41.0295869,-137.996981,9.450173237397593,0.4723599761843352,150.96038381377423,24.355602941176272,30.269014705882487
29200,29200.0,1.4798988000000002,-9.4376217,1.20037004,0.18773575399999998,0.34701919649999996,0.3215644825,-43.79966765,40.832977500000005,-138.408125,9.62830402048032,0.5090666375379506,150.80637774766757,24.30679411764686,30.25597058823543
29300,29300.0,0.909484865,-9.4860424,0.91103517,0.1354873594,0.62750397,0.21519928,-42.0664975,40.99029565,-139.962537,9.574672885286637,0.6773340484856785,151.7871827185466,24.25798529411745,30.24292647058837
29400,29400.0,1.97107241,-10.7129469,2.03200225,0.0194808957,0.476338186,0.0955673217,-39.90821885,40.84892225,-140.9819005,11.081514734806593,0.4863475465552474,152.1092744238689,24.209176470588037,30.229882352941306
29500,29500.0,-0.246682743,-11.3717054,-1.17179718,-0.399388124,-0.11178741199999999,-0.170651241,-39.71466065,40.6819916,-139.8514525,11.43576371289752,0.4498206236318614,150.96598824281654,24.16036764705862,30.21683823529425
29600,29600.0,-0.21400146379999999,-9.5420687,-0.5290801940000001,-1.6625732,0.08603515599999999,-0.98727722,-41.0488901,41.5200046,-135.803677,9.57965129258859,1.9359989636827408,147.82310987364608,24.11155882352921,30.203794117647192
29700,29700.0,-0.02330169700000001,-11.0457427,-0.243444822,-1.28930513,0.37993469,-0.54903411,-43.34594685,41.5940107,-130.217361,11.051217408429501,1.452773207732935,143.40691786912862,24.062749999999795,30.19075000000013
29800,29800.0,0.7659484759999999,-8.45629115,-0.33742064,-0.10026550304,-0.171441653,-0.462948609,-44.47875870000001,41.1981212,-128.09265240000002,8.499446654529622,0.5193724235752364,141.71586446008766,24.013941176470386,30.177705882353074
29900,29900.0,-0.128521727,-8.5465511,-1.61125644,0.227622983,-0.277867127,-0.26204070399999996,-45.724486999999996,40.6758884,-127.0629131,8.702206955740724,0.4449240725355726,141.03292682586212,23.96513235294097,30.16466176470601
30000,30000.0,1.74494091,-8.3887151,-1.926683825,0.2423782325,0.17333602850000002,-0.193172457,-46.4436346,39.59808375,-127.47161659999999,8.782343919746987,0.35641722655479513,141.32959291428222,23.91632352941156,30.15161764705896
30100,30100.0,4.11274654,-9.920044,-2.818953795,0.18059540100000002,-0.7809860234999999,-0.1012512235,-46.428909499999996,39.57962020000001,-126.73034825,11.103912485179203,0.8095685765437757,140.65125057422156,23.867514705882144,30.138573529411893
30200,30200.0,0.92324369,-7.23070387,-1.13457035,0.29336090200000003,-0.075990295,-0.14529571859999998,-47.5494375,38.5869613,-126.4904044,7.381485597896098,0.3452184886263479,140.5337788123579,23.818705882352727,30.12552941176484
30300,30300.0,2.06289522,-12.449336500000001,-3.39506072,0.5046051029999999,-0.386944586,0.73919067,-46.4310459,39.133911299999994,-127.5568399,13.074166087957568,0.9762521094661464,141.27305175770599,23.769897058823318,30.11248529411778
30400,30400.0,-1.57331088,-7.3177292299999985,2.08239901,0.243072509,0.6363494759999999,0.11356048700000003,-45.155562,39.34951785,-128.7804425,7.775161444991884,0.7104170803558107,142.02754451099446,23.72108823529391,30.09944117647072
30500,30500.0,1.705670161,-10.7858486,-0.103140259,0.56659849,-0.10315399199999999,0.14339752,-44.38285745,39.40826405,-130.176008,10.93121778819943,0.5965735306385572,143.0686802944731,23.67227941176449,30.08639705882366
30600,30600.0,1.92642669,-10.53745,1.66329496,0.502034002,-0.6683837970000001,0.35612945700000004,-43.7861625,39.2046357,-131.07482950000002,10.84399711032295,0.9176586717564872,143.64835888422962,23.62347058823508,30.0733529411766
30700,30700.0,0.150046542,-9.1424788,0.94647677,0.3077331565,0.43905334700000004,-0.23781203899999998,-43.94775405,38.79386895,-133.26988400000002,9.192721668187048,0.5869617502459644,145.59269307145985,23.574661764705674,30.06030882352955
30800,30800.0,1.3821655700000002,-9.7336588,1.3472663425,0.317328631,0.25370330350000003,0.2372917145,-43.17687960000001,38.36433450000001,-134.790573,9.924259195460856,0.4710574626172189,146.6444268471381,23.525852941176254,30.047264705882483
30900,30900.0,1.24012297,-9.87815285,0.5103683335,0.26257475750000003,0.1362045285,0.26078796,-42.2441105,38.217316100000005,-135.763552,9.968805910307847,0.3947248706508444,147.23079096197284,23.47704411764684,30.034220588235424
31000,31000.0,1.207077,-9.800644,1.2076721000000001,0.1641388,0.30462646,0.23628235,-40.8174142,38.2617203,-137.227177,9.948272694281323,0.4190085616298241,148.19358162986754,23.42823529411743,30.021176470588365
31100,31100.0,0.9185790999999999,-9.381653,1.3261871,0.117263794,0.5443115,0.16810608,-39.73602279999999,38.4556578,-137.43988000000002,9.519347288526257,0.5816231258714623,148.1470757101257,23.37942647058801,30.008132352941303
31200,31200.0,2.4963531000000003,-10.2495575,1.9235381999999999,-0.021209717000000003,0.5293884,0.11697388,-37.8172305,38.230895000000004,-138.62518,10.723115543187301,0.5425724087640602,148.68997718059032,23.330617647058602,29.99508823529425
31300,31300.0,1.0035706,-11.607056,-0.105545044,-0.22468567,-0.37927246,-0.26013184,-38.1074525,37.9006965,-138.592071,11.650838711982642,0.5118591831740308,148.6487014470108,23.28180882352919,29.98204411764719
31400,31400.0,-0.44612122,-9.993378,-1.0680083999999999,-1.6287079,0.10115051,-0.9333800999999999,-39.5866395,38.6898804,-135.026245,10.060182400746463,1.8799253336959103,145.93193298621003,23.23299999999977,29.96900000000013
31500,31500.0,-0.17915344,-11.50531,-0.38685608,-1.3346863000000002,0.5325928000000001,-0.6276398,-41.2724296,39.6159364,-130.16403400000002,11.513205973046636,1.5681117079352382,142.18132406943562,23.184191176470364,29.955955882353074
31600,31600.0,0.5643524000000001,-8.66872285,-0.30133361350000004,-0.18025589135,0.178067019,-0.7055167950000001,-43.4280398,38.9414977,-128.711392,8.693318020694406,0.7531902936695406,141.31206664356284,23.13538235294095,29.94291176470601
31700,31700.0,0.081979367,-7.54768915,-0.9949333175,0.329422001,-0.352533718,-0.21533889399999998,-44.698944,38.3750154,-128.5889436,7.613781317768061,0.5290461593404401,141.4418089899676,23.086573529411535,29.92986764705895
31800,31800.0,2.32086716,-8.492990125,-2.13881151,0.219477841,-0.28925857149999995,0.1829673775,-44.3083969,38.34098785,-127.91336499999998,9.060459210103984,0.4073030824161221,140.69533913726377,23.037764705882125,29.916823529411893
31900,31900.0,4.544780950000002,-10.495919500000001,-3.001860845,0.0950599674,-0.42567443450000003,0.20352096235,-43.80981475,38.8883972,-127.9251101,11.825240708952727,0.4828714628662362,140.70004701436218,22.98895588235271,29.903779411764837
32000,32000.0,0.28716353899999997,-7.12637784,-1.51986082,0.387253566,0.22888183850000002,-0.0005737306499999997,-44.19960045,38.6914823,-128.0688456,7.304920103315183,0.4554297486393385,140.89811687786215,22.9401470588233,29.89073529411777
32100,32100.0,5.01828612,-15.27299895,-5.654639250000002,0.110075379,-0.8406890890000001,0.4222808955,-42.211914,39.6154785,-128.810963,17.045256986421734,0.9514482536318226,141.22145785878934,22.89133823529389,29.87769117647072
32200,32200.0,-3.511354065,-7.526684515,1.325415837,0.438333893,-0.09362182349999999,0.271604155,-41.6787724,39.9908435,-130.780947,8.439196875037114,0.5288888553164736,142.96877621019866,22.842529411764477,29.864647058823657
32300,32300.0,0.09037322800000001,-9.58935455,-1.0295883442,0.5228149445,0.47037810950000003,0.0321304321,-40.3807073,39.7554018,-132.809143,9.649824933431525,0.7056380998282323,144.3931017142446,22.793720588235058,29.8516029411766
32400,32400.0,2.4308142900000003,-10.9861313,1.357916228,0.585829935,-0.106837465,0.04794464125,-39.937284999999996,39.7663883,-133.732304,11.3376350011043,0.6004982013740006,145.1231680533932,22.74491176470565,29.83855882352954
32500,32500.0,0.25898132150000003,-9.63998,0.533166508,0.356424715,0.12358016949999999,0.002517700203,-40.31631470000001,39.3121334,-135.512697,9.658720381616792,0.3779731055662978,146.74659319019628,22.696102941176232,29.825514705882483
32600,32600.0,1.13334202,-9.7970492,1.25520785,0.255754093,0.096258546,0.28964996600000004,-39.1572573,39.345551,-136.089326,9.942126739669467,0.3982872725733208,146.9751096557716,22.647294117646823,29.81247058823542
32700,32700.0,1.01589963,-9.9379376,0.44596252,0.255751037,0.133013913,0.25897216500000003,-38.3460998,39.111786200000004,-137.81524299999998,9.999863979423463,0.38802218780437603,148.30105474266364,22.598485294117406,29.79942647058836
32800,32800.0,1.1116729459999999,-9.911489699999999,1.0203354,0.09585266419999999,0.300782777,0.16405639300000002,-36.815033,39.3601975,-138.13888799999998,10.02614350385326,0.3569050985249383,148.27991235207594,22.549676470588004,29.786382352941303
32900,32900.0,1.29998168,-9.4452196,1.67286983,-0.0605300902,0.542715456,0.13486786,-35.6405655,39.8014828,-138.93310300000002,9.680192879773944,0.562762805245702,148.85171562240367,22.500867647058588,29.773338235294247
33000,33000.0,1.66101988,-9.9747028,1.7373901000000003,0.05164947486,0.274159243,0.31639557,-33.7265012,39.4503782,-139.270176,10.261097946083492,0.4230490620084425,148.6270895011546,22.45205882352917,29.760294117647184
33100,33100.0,0.77899779,-11.4521534,-1.24254605,-0.248646542,-0.280957031,-0.28846282700000003,-33.4716797,39.7406005,-138.886411,11.549105712627284,0.4771373584201427,148.28726102036,22.403249999999762,29.747250000000125
33200,33200.0,-0.208853151,-9.63351735,-0.655845648,-1.84569854,-0.200415035,-0.88564455,-35.54351810000001,41.294097799999996,-134.025876,9.66680147069238,2.0569904145609166,144.67777907739892,22.354441176470342,29.734205882353066
33300,33300.0,0.58794401,-11.8400227,-0.8139862059999999,-1.23945164,0.277035525,-0.58055725,-37.53845215000001,42.360152899999996,-128.2644625,11.88511767708818,1.3965634557406363,140.19735056448,22.305632352940933,29.72116176470601
33400,33400.0,0.99375456,-8.09739877,0.023750305000000003,-0.22041625920000002,-0.0652313225,-0.637335187,-39.8418428,42.733307,-125.92384650000001,8.159687147283485,0.6873500518154614,138.81764678718363,22.25682352941152,29.70811764705895
33500,33500.0,-0.003549194299999999,-8.473291,-1.89521028,0.11811523550000001,-0.55184784,-0.246070863,-41.50283835,42.0915222,-125.08560175,8.683077303536361,0.6162347237944431,138.34956649478522,22.20801470588211,29.695073529411893
33600,33600.0,2.19660115,-8.515783675,-2.186396815,0.1977523795,0.059767915550000016,0.12342147825,-41.33171055,41.90689085,-125.3496555,9.063312421929584,0.24570023265699864,138.4812038920897,22.15920588235269,29.682029411764827
33700,33700.0,3.897802675,-9.9107061,-2.95158318,0.30251846450000003,-0.28792572050000004,-0.039837645750000004,-40.748979,42.27302625,-125.423203,11.052580999737382,0.4250733260621499,138.48634719499123,22.11039705882328,29.66898529411777
33800,33800.0,1.311353295,-6.85170215,-1.030959325,0.29255904,-0.13420867849999998,-0.046116637900000014,-41.634291999999995,42.1987169,-125.84960929999998,7.061484843533153,0.3376309008186869,139.11246185389484,22.06158823529387,29.65594117647071
33900,33900.0,1.203491976,-13.386675400000001,-3.036527995,0.7638305675,-0.22795943800000001,0.8187767,-40.00526515,42.7394094,-128.1275215,13.803290148279945,1.1619475821044003,140.867878658124,22.012779411764456,29.642897058823646
34000,34000.0,-1.79171599,-6.403318765,2.3884376300000003,0.0722633368,0.99379123,0.021053313879,-39.02183535,43.129043300000006,-128.828125,7.105961453980153,1.0030362492345977,141.3488785768334,21.96397058823505,29.629852941176594
34100,34100.0,2.687416105,-11.5383533,0.600928485,0.5605728324999999,-0.226840205,0.27074355850000004,-37.9552463,43.22502160000001,-130.2815995,11.864864083657984,0.6636372478298006,142.41594823646255,21.91516176470563,29.616808823529528
34200,34200.0,0.9849933768421052,-10.42231042105263,0.7503188152631579,0.6068412421052631,-0.4171776910526316,-0.051223754315789474,-38.0296322,43.14903185,-131.36978050000002,10.496473534983268,0.7549809028110894,143.40894484622683,21.866352941176213,29.603764705882483
34300,34300.0,-0.235180666,-8.979187,1.12747494,0.213562014,0.20065612600000002,0.0566833504,-38.3435071,42.598647850000006,-132.9586765,9.05749626611104,0.3029323126892484,144.78568852200436,21.817544117646804,29.590720588235417
34400,34400.0,1.1280701000000002,-9.8126132,0.6792846640000001,0.32115783600000003,0.21045532399999997,0.2897583,-37.0063779,42.86827115000001,-134.43291000000002,9.902592384360092,0.4810909940404399,145.87454569788468,21.768735294117388,29.57767647058836
34500,34500.0,1.17811582,-9.3656066,1.15788572,0.241268924,0.31357726,0.2776123,-35.83290185,42.86850065,-135.13000549999998,9.510810794512013,0.48336467277219397,146.22527292403998,21.71992647058798,29.5646323529413
34600,34600.0,0.414126586,-9.6569888,1.21989444,0.128344724,0.53045351,0.217321774,-34.561157,42.852783,-136.45172,9.742576869168735,0.5874850138414709,147.13907188433038,21.67111764705857,29.551588235294236
34700,34700.0,1.50300292,-10.009649699999999,1.88476258,0.07977294800000001,0.61589356,0.259933472,-32.611084000000005,43.22052,-136.51886000000002,10.29703859459641,0.6733265720121285,146.86352605199514,21.622308823529156,29.53854411764718
34800,34800.0,0.77061769,-11.1243868,1.56921084,-0.008862304560000001,-0.0848419192,0.163201906,-31.243896000000003,43.211365,-136.56006000000002,11.26517712562066,0.1914511158437063,146.60168174214658,21.573499999999736,29.525500000000118
34900,34900.0,0.87620544,-9.583725,-1.03616336,-0.7061828459999999,0.29993286199999997,-0.33640747200000004,-31.533813000000002,43.87207,-135.45074,9.679889675375264,0.8386879119184445,145.82881352788775,21.524691176470327,29.512455882353066
35000,35000.0,-1.046466825,-10.442287375,-0.608921045,-1.72004705,-0.00989914,-0.918457025,-34.043884000000006,44.618225,-129.64935,10.52473508497036,1.9522160715194807,141.27535523005625,21.47588235294091,29.499411764706007
35100,35100.0,0.634269725,-10.93519625,-0.6038322425,-0.809516905,0.2470970175,-0.6034088175000001,-36.853027000000004,44.900513000000004,-125.2655,10.97662529193229,1.0421765797490756,138.0784094526581,21.427073529411498,29.486367647058945
35200,35200.0,0.3095550475,-7.850261725,-0.537395485,0.09836196875,-0.3563728275,-0.4393539425,-38.789367999999996,44.42749,-122.80426000000001,7.875698434027956,0.5834093745156687,136.23253360224615,21.37826470588209,29.473323529411893
35300,35300.0,1.12538145,-8.83697475,-1.396018975,0.3902473475,-0.380336765,-0.2220459,-39.6698,43.963623,-123.56415,9.024819503723288,0.5886397983331616,137.02040849650328,21.32945588235268,29.460279411764827
35400,35400.0,2.55322265,-9.2370985,-3.00372315,-0.012424469000000002,-0.28393555,-0.1416168175,-40.548706,43.685913,-124.00970500000001,10.04676199956327,0.3227550539660664,137.5902012757632,21.280647058823266,29.44723529411777
35500,35500.0,2.60170745,-8.497898,-1.351123825,0.07838439999999999,-0.29219055,-0.231639865,-41.22467,43.49518,-122.70965600000001,8.993373015290784,0.3833043629534032,136.5612088972547,21.23183823529385,29.43419117647071
35600,35600.0,1.59602358,-8.04748835,-1.4294159199999998,0.451969918,-0.24526825,0.141374206,-41.226196,43.496704,-123.02856399999999,8.333565017402337,0.5350438349057653,136.84878536324732,21.18302941176444,29.421147058823646
35700,35700.0,1.9822037000000001,-11.9830706,-3.40379488,0.464755254,-0.368627929,0.50238495,-39.868164,43.966675,-124.19586000000001,12.61858897491084,0.7816817757013104,137.64864929386746,21.134220588235024,29.40810294117659
35800,35800.0,-0.6791869970000001,-8.150794900000001,1.67215122,0.139956666,0.63528136,-0.0257705678,-39.682007,44.255066,-125.32501,8.422041348636075,0.660228660596954,138.70663530528202,21.08541176470561,29.395058823529528
35900,35900.0,0.74655915,-9.8493656,0.11711883692,0.50342255,0.264462277,0.411631784,-38.327026000000004,44.53888,-127.127075,9.884710293935314,0.7044070998493419,140.04986951694994,21.0366029411762,29.38201470588247
36000,36000.0,2.59943387,-10.611071899999999,1.222522,0.5084365829999999,-0.13766784699999998,0.1869598416,-37.457275,44.540405,-128.74756000000002,10.993878033588887,0.5764643678840297,141.2898769690994,20.987794117646786,29.368970588235413
36100,36100.0,1.10581208,-9.3612989,0.7988647590000001,0.25575409000000005,0.0795318602,-0.09288635199999999,-37.564087,44.548035,-130.33905,9.460289057083113,0.2875004310611137,142.77204211401929,20.938985294117373,29.355926470588354
36200,36200.0,0.8143045589473684,-9.830628842105263,0.9354328473684209,0.2481890210526316,0.22164756842105265,0.17343540842105262,-37.179565000000004,44.361877,-131.62231,9.909533198661718,0.3776700795150843,143.7870949504456,20.89017647058796,29.342882352941288
36300,36300.0,1.10789639,-9.8450534,0.37629165299999995,0.2612403875,0.149578097,0.34526061950000003,-36.00227385,44.5510097,-132.9540235,9.915518590523678,0.4588845025328519,144.76786664643174,20.841367647058547,29.329838235294236
36400,36400.0,1.42183915,-9.90214675,1.428190635,0.15423659850000002,0.1057899485,0.35207291399999996,-34.43252555,44.64553805,-134.08043500000002,10.109948422559746,0.3995201968586667,145.4523950263609,20.792558823529134,29.316794117647177
36500,36500.0,1.063197345,-9.72797345,0.98453367,0.1653594985,0.49929962,0.196015932,-32.99713,44.821166999999996,-134.15222,9.838967743801684,0.5638456202555575,145.23968373143475,20.743749999999718,29.303750000000118
36600,36600.0,1.98352127,-10.6222102,1.99219361,-0.07863693175,0.43192139399999996,0.05795593445,-31.8234252,44.83070435,-134.4986765,10.987988457130037,0.4446267944786097,145.30114069629101,20.69494117647031,29.29070588235306
36700,36700.0,0.3479270965,-11.235844,-1.7954308,-0.57297135,-0.2679588305,-0.369159701,-32.699051350000005,45.3807829,-133.4959445,11.38764943633494,0.739725789411856,144.7404993907141,20.646132352940896,29.277661764706
36800,36800.0,-1.821884915,-9.5446321,-0.14354554500000005,-2.01432879,0.1902626015,-0.9791755775,-35.06278965,46.38755815,-126.58927975,9.787232914293034,2.248117505201836,139.30584228401727,20.597323529411486,29.26461764705894
36900,36900.0,1.2288665600000002,-11.216570800000001,-0.21064453200000005,-1.11183776,0.203851318,-0.696249384,-37.7493274,45.55992115,-120.8840165,11.29908190642821,1.3286866317385593,134.58728371628064,20.54851470588207,29.25157352941188
37000,37000.0,1.25687868,-8.120392200000001,-0.576962272,0.22166138,-0.49539489600000003,-0.599523926,-40.5419924,44.97024565,-118.95126599999999,8.24502098138754,0.8270812484450197,133.47431347951738,20.499705882352657,29.238529411764823
37100,37100.0,0.6444457960000001,-8.389019600000001,-1.49849246,0.20781555,-0.482391358,-0.240737912,-41.99844325,44.78683485,-119.21500800000001,8.548842008946293,0.5790174446106434,134.0968306675563,20.450897058823248,29.225485294117764
37200,37200.0,2.27082518,-8.521176400000002,-1.88252262,0.20291443,-0.22545776,0.19111938399999998,-41.7935935,44.64012165,-119.5127885,9.017904097318663,0.35971461299842894,134.2488797826347,20.402088235293828,29.212441176470705
37300,37300.0,4.42129832,-9.829361,-3.49787902,0.123876948,-0.52202148,0.0803283712,-40.9272762,45.26794455,-119.39437920000002,11.331822686999983,0.5472645738313718,134.0867207442037,20.353279411764422,29.199397058823646
37400,37400.0,-1.07842406,-8.9997802,-1.27295834,0.580444344,0.31953124,0.275061032,-41.18171675000001,45.108717299999995,-119.446256,9.175317354663873,0.7302235672757506,134.1573049852505,20.30447058823501,29.18635294117659
37500,37500.0,3.21581422,-9.7005584,-0.94901736,0.07913208179999999,0.3642761346,0.113137818,-39.1756439,46.133881099999996,-120.31104979999999,10.389850650688835,0.4631663445448915,134.67671140345522,20.255661764705593,29.17330882352953
37600,37600.0,1.448177305,-9.30048605,-0.706727608,0.5938720820000001,-0.07428665293,0.558044415,-38.21281389999999,46.4301302,-122.40409825,9.471375477910412,0.8204057942591338,136.37720770887495,20.20685294117618,29.16026470588247
37700,37700.0,-0.02000579899999999,-9.26846625,1.85411148,0.37340545399999997,-0.2039329534,0.21855392350000002,-37.84461990000001,46.627274,-123.4011842,9.462916480426983,0.5089747141396458,137.23764618938142,20.158044117646767,29.147220588235413
37800,37800.0,0.596260077,-9.8288289,0.65707855,0.58465422,-0.030189514025,-0.009313965849999994,-37.28134165,47.0713794,-126.09131,9.87844347275247,0.5887273728593093,139.6590241063204,20.109235294117354,29.13417647058835
37900,37900.0,0.6438446150000001,-9.455269,0.8317870999999999,0.21900177,0.355224615,0.08394623000000001,-37.7484132,46.713257,-127.03415249999999,9.525251256480024,0.4290417388507253,140.51600409696252,20.06042647058794,29.121132352941288
38000,38000.0,0.74919127,-9.3864365,0.7671432499999999,0.38571167,0.0825119015,0.28635406500000005,-36.5828701,46.819077,-127.893064,9.44998259984889,0.4878276687896587,141.02117304951898,20.011617647058532,29.108088235294233
38100,38100.0,1.3501358,-9.1751555,1.39682005,0.220062255,0.173057555,0.41365814,-35.0977326,47.09632865,-129.3560805,9.380049404001634,0.4998615165068163,142.06665330881555,19.962808823529123,29.09504411764717
38200,38200.0,0.907203675,-9.5378725,1.3190155000000001,0.17798614499999998,0.25614929,0.25652314,-33.5614652631579,47.55385536842105,-130.19304736842105,9.672870987804373,0.4042540542279913,142.61126741095018,19.913999999999703,29.082000000000114
38300,38300.0,1.258616645,-10.092488099999999,1.5617805,0.10528793475,0.511122898,0.2420936555,-32.5643925,47.2778323,-131.015622,10.290390722566016,0.5753983359072861,143.0410408929328,19.86519117647029,29.068955882353052
38400,38400.0,1.59446334,-11.67607415,1.22025068,-0.1298210135,-0.16856384000000002,0.02557830970000001,-31.831818,47.565155299999994,-130.549779,11.867222192460456,0.2305705161410692,142.54459900639583,19.816382352940877,29.055911764706
38500,38500.0,1.2098983615,-10.158209875,-2.12438738,-1.27529602,0.0950859084,-0.698274245,-33.348847000000006,47.8361525,-127.62267949999999,10.455485510749503,1.4602561237822078,140.3145920450205,19.767573529411465,29.042867647058934
38600,38600.0,-1.81985017,-11.91645245,0.972387703,-1.553173855,0.3593261675,-0.941207122,-37.8904723,47.42080670000001,-119.646302,12.117188888398855,1.8521229662192489,134.16310386398771,19.71876470588205,29.02982352941188
38700,38700.0,0.033321377500000034,-8.767241699999998,0.05619049274999999,-0.665273283,0.1160659776,-0.800962805,-41.5441897,45.3680417,-115.39077749999998,8.777373524566304,1.0599009129410601,130.7640798151684,19.669955882352642,29.016779411764823
38800,38800.0,0.643728646,-7.2378875,-0.7493438799999999,0.227847288,-0.7344390959999999,-0.38391724,-44.3658448,44.170379,-114.831083,7.33145384927179,0.8649328044824712,130.78818915557835,19.621147058823226,29.00373529411776
38900,38900.0,2.63737188,-9.223871,-2.71330566,0.1264312716,-0.49730836,0.123370362,-43.6759951,44.509888000000004,-113.28079199999999,9.97618478709584,0.529140493351976,129.31079506828226,19.572338235293813,28.990691176470698
39000,39000.0,2.7154266,-8.9083194,-2.44347844,0.15198974999999998,-0.27062378,0.16512451,-43.206635600000006,45.0885005,-114.24896000000001,9.629762799964034,0.3617679962093013,130.20223310567116,19.523529411764397,28.977647058823642
39100,39100.0,3.06282654,-8.624365199999998,-2.93572078,0.32818909,-0.43424988,-0.274829102,-43.338775299999995,45.058746500000005,-113.622281,9.630964159181634,0.6261033435754806,129.68643105773614,19.474720588234987,28.964602941176587
39200,39200.0,0.3439697600000001,-11.1574312,-1.99672242,0.39742737,-0.29085998,0.6227661,-42.52365089999999,45.5735781,-115.636137,11.379018725786452,0.8230870278378738,131.36569694452336,19.425911764705575,28.951558823529524
39300,39300.0,-0.9393219040000002,-7.70068356,1.6302520983999995,0.38933716,0.93036196,0.0549743672,-42.167359399999995,46.0282896,-115.94528400000002,8.09095415202788,1.010770861381681,131.68147361781945,19.377102941176158,28.938514705882465
39400,39400.0,2.426572355,-10.32909185,-0.040599822000000015,0.4661392185,0.12927932849999998,0.2909339885,-41.1079406,47.1049499,-119.0156555,10.612792943489069,0.6012207833020298,134.43763301260506,19.32829411764675,28.925470588235413
39500,39500.0,1.84800869,-10.086625199999999,1.370610035,0.40403290000000003,-0.372296139,0.26637649350000003,-40.7257076,47.2415164,-120.241548,10.351362223802573,0.6114627897000645,135.45618871152354,19.279485294117336,28.91242647058835
39600,39600.0,0.7631378209999999,-9.49980775,0.31667710225,0.4972465505,-0.136017608,-0.0614547731,-40.7690427,47.56317,-122.33703500000001,9.54506448648906,0.5200849801976548,137.4435189913367,19.230676470587927,28.899382352941288
39700,39700.0,0.93330384,-9.53805755,1.570583345,0.175008389,0.3283302325,0.106374358,-40.95108,47.728729200000004,-123.339995,9.716256223733332,0.3881374954007475,138.44781402239573,19.18186764705851,28.886338235294232
39800,39800.0,0.5896713265,-9.84619185,0.3765960665,0.3113540655,0.13545761550000002,0.222541045,-40.2864075,48.0236813,-124.4989015,9.871539447329523,0.4066810355625238,139.38888624919736,19.133058823529094,28.87329411764717
39900,39900.0,1.62463072,-9.6348921,1.408133675,0.15438537249999998,0.247687532,0.3081863405,-39.3109136,48.4223927,-126.1003111,9.87317644018066,0.4244662852453685,140.68179847241385,19.084249999999685,28.86025000000011
40000,40000.0,0.7828293000000001,-9.728332600000002,1.20683748,0.136871334,0.463244625,0.23160247899999997,-38.5456848,48.6291501,-126.79901059999999,9.83551694279192,0.5359358971219751,141.1685382913514,19.035441176470272,28.84720588235305
40100,40100.0,2.40406492,-10.34100675,1.5226425,-0.022390746800000003,0.62355652,0.12773895300000002,-37.79983475,48.84216305,-127.7431515,10.725794178837964,0.6372903761107998,141.88976272544105,18.98663235294086,28.834161764705996
40200,40200.0,2.16116946,-11.9918089,-1.060942097,-0.553532409,-0.27541046300000005,-0.21315460400000005,-38.410644299999994,49.12078745,-126.65458675,12.24855804587358,0.6557438328576165,141.1724390234652,18.93782352941145,28.82111764705893
40300,40300.0,-1.468074004,-9.9500395,-0.3910507349999999,-1.86562045,-0.12073821800000001,-1.04629666,-42.123946200000006,47.58552545,-120.32737975,10.105416733389331,2.1432014154525367,136.08045914950102,18.889014705882033,28.808073529411875
40400,40400.0,0.7804321479999999,-11.611250300000002,-0.682904065,-1.20664211,-0.1003845199,-0.5447738679999999,-45.5880735,45.33706775,-114.5263645,11.658218255247702,1.328424874316816,131.33972339866258,18.84020588235262,28.795029411764816
40500,40500.0,0.42321471899999996,-7.80207371,-0.16108550719999998,-0.08257141199999997,-0.320681765,-0.527832027,-47.96394340000001,43.9444737,-112.261655,7.817656368052154,0.6353323521007559,129.7475293673364,18.791397058823208,28.78198529411776
40600,40600.0,0.32697449,-8.4204953,-1.38811497,0.460821534,-0.587112421,-0.34833375,-49.488679,42.87231445,-111.9196305,8.541332159737003,0.8284500258288312,129.66568888370352,18.742588235293795,28.768941176470694
40700,40700.0,2.1512985,-8.54936625,-2.681995375,0.211544035,-0.086059571,-0.08063507249999999,-49.82429355,42.7416229,-111.85936025,9.217741081197238,0.25937284166970576,129.6991372687131,18.693779411764385,28.755897058823642
40800,40800.0,3.3430061,-10.181911375,-3.2090224750000003,0.08531188875,-0.65703965,0.09300994875,-50.0003045,42.6338955,-112.08244315,11.191068271870254,0.6713896663024148,129.92370533033235,18.64497058823497,28.742852941176576
40900,40900.0,-0.44163132,-8.660400000000001,-1.6174736,0.37186432,0.470542915,0.16944504,-50.0839985,42.99049395,-113.36425775,8.870692642970251,0.6328392187774007,131.17949762324318,18.596161764705556,28.72980882352952
41000,41000.0,2.814788825,-11.99103525,-2.5566023999999996,0.3204689025,0.17678832999999988,0.34280776,-48.435669399999995,44.47486805,-113.9977241,12.586600040537045,0.6138055862786258,131.6036085949788,18.547352941176143,28.716764705882458
41100,41100.0,0.5824966249999999,-9.99127575,-0.29617309,0.6946372975,0.260147095,0.5902175825,-48.07067845,45.0900267,-118.48899650000001,10.114643192579756,0.9545721246187946,135.5861725092815,18.49854411764673,28.7037205882354
41200,41200.0,2.227005,-10.6152685,3.1380043250000003,0.41340637,-0.2248191815,0.3095207225,-47.183228,45.887756,-120.51086399999998,11.292943983682301,0.5738082499180045,137.31282349890708,18.44973529411732,28.690676470588347
41300,41300.0,-0.23039550600000006,-9.293548199999998,0.6790405199999999,0.5244140700000001,0.085818481,0.049859619400000006,-46.83586085,46.0990145,-122.464446,9.325395502188064,0.5415847993674421,138.98294742536743,18.40092647058791,28.677632352941284
41400,41400.0,0.9829895059999999,-9.130981199999999,1.54358518,0.219317628,0.65616456,0.159155272,-46.60301165,46.05705305,-125.30128359999999,9.322614131955065,0.7108109906799824,141.39839745371305,18.35211764705849,28.66458823529423
41500,41500.0,1.0342194,-9.7216248,1.18086246,0.185015872,0.19042969199999998,0.13913573799999998,-46.039199700000005,46.35528565,-127.0948014,9.847551153029778,0.2997576635100982,142.90386152149028,18.30330882352908,28.65154411764717
41600,41600.0,1.23557132,-9.460662999999998,1.22012936,0.11663207800000001,0.16123962400000005,0.18131714,-45.748900899999995,46.42669675000001,-127.54417509999999,9.618857049108648,0.2719738040744564,143.2338409963903,18.254499999999663,28.63850000000011
41700,41700.0,1.25616454,-9.8956878,1.70064086,-0.08918456799999999,0.05577392324,0.088845826,-45.294626,46.34486742857143,-128.55290285714284,10.123093867216117,0.1400942872993375,143.96289294163026,18.205691176470253,28.62545588235305
41800,41800.0,0.5539398,-9.7764494,1.13561404,-0.002038574179999999,0.36491394,0.229675292,-45.06153284210527,45.95031784210526,-128.5170757894737,9.858650150633176,0.4312335987936677,143.73111594778516,18.15688235294084,28.612411764705985
41900,41900.0,3.11118776,-11.093984800000001,1.460025,-0.18867187600000002,-0.030725096800000008,0.146380616,-44.23942525,46.4481356,-129.1294065,11.615530185067424,0.2561795050628695,144.1838381401074,18.108073529411424,28.59936764705893
42000,42000.0,-0.25673599137500003,-9.82068645,-0.7139709544999999,-1.14699093,-0.08429718024999999,-0.6723251275,-45.92514045,45.4872126,-126.92726119999999,9.851179663453596,1.3324613804834375,142.4391760420821,18.05926470588201,28.586323529411867
42100,42100.0,-0.8865303025,-11.424205699999998,-0.35519867149999995,-1.09974057,0.2364524815,-0.7815292349999999,-48.8034063,43.89739975,-122.28233375,11.480229662718928,1.370096465105985,138.78692053427096,18.010455882352602,28.57327941176481
42200,42200.0,0.020341491699999964,-9.54589965,-0.30652923649999997,-0.678752915,0.21770554050000002,-0.583327495,-50.8957679,41.9676965,-119.8313139,9.552104739307207,0.921348624527872,136.78900930400508,17.961647058823193,28.560235294117756
42300,42300.0,0.8316093440000001,-7.599765775,-0.385477444,0.020806884500000004,-0.5049247750000001,-0.444683845,-52.311476500000005,40.5910495,-119.39117425,7.659044153523077,0.6781857178951582,136.5228752026215,17.912838235293776,28.54719117647069
42400,42400.0,2.234253735,-8.5532629,-1.546787985,0.309329985,-0.16377410550000002,0.013751220500000005,-52.69203255,40.0434111,-119.2076876,8.97922533287268,0.3557637797099185,136.3466141157814,17.864029411764363,28.53414705882364
42500,42500.0,2.9366500600000003,-8.7095446,-2.39990006,0.21223602600000002,-0.552115633,0.20565948399999998,-52.219238399999995,40.39947479999999,-118.86291399999999,9.500848701203564,0.6264567241021167,135.96824892238578,17.81522058823495,28.521102941176572
42600,42600.0,2.19984286,-8.531117250000001,-2.51758112,0.238488769,0.22195587400000005,-0.23776398,-52.02362,40.1153564,-119.21295400000001,9.175385107677801,0.4325078282099516,136.11554075466157,17.766411764705538,28.50805882352952
42700,42700.0,3.90822151,-12.30461,-2.76657717,0.0372711177,-0.36478577,0.468624882,-50.8874508,41.1773684,-120.86578359999999,13.238076467926447,0.5959509683962498,137.45440869420096,17.717602941176125,28.495014705882454
42800,42800.0,-1.12019654,-8.800456500000001,-0.7198913455,0.62625122,0.188082888,0.579513546,-49.779968,41.773376,-124.581602,8.93272777419126,0.8813517238228277,140.512121861419,17.668794117646712,28.4819705882354
42900,42900.0,-0.4961471400000002,-8.62329555,1.5726760439999996,0.39178161200000006,-0.14918518239999998,0.1429687527,-48.8793948,42.440490399999995,-126.824952,8.804707872712694,0.44592010823018186,142.39022388138608,17.6199852941173,28.46892647058834
43000,43000.0,1.58153993,-9.7891496,1.0827041199999998,0.5611618039999999,-0.239936829,-0.0016967774999999965,-48.2623292,42.2732546,-128.4021,9.977585309757872,0.6120290429530465,143.53889733411674,17.571176470587886,28.45588235294128
43100,43100.0,-0.17880096500000006,-9.564923,0.4630844029999999,0.28750152700000003,0.365554813,-0.026094055,-48.483276000000004,41.5438842,-130.26062000000002,9.579436404011934,0.4687211653342442,145.06673188973386,17.522367647058473,28.442838235294218
43200,43200.0,0.9468353,-9.6268145,0.8399246220000001,0.327546696,0.108610537,0.285076903,-47.7923586,41.9457994,-131.91833400000002,9.709824035229923,0.4482073488648503,146.44457098318074,17.47355882352906,28.429794117647162
43300,43300.0,1.36139372,-9.4036837,1.366061385,0.206748966,0.185415645,0.37637176200000005,-46.1972044,42.224121000000004,-132.769468,9.600506320188481,0.4678666589972937,146.78163205358808,17.424749999999648,28.416750000000103
43400,43400.0,0.820059205,-10.10493745,1.44758145,0.11002197400000001,0.28491363199999997,0.24629821699999999,-44.9002078,42.376099,-134.66216599999998,10.241632229734778,0.3930309431997235,148.14071058909232,17.375941176470235,28.403705882353048
43500,43500.0,0.731832884,-10.1724639,1.69286191,0.00690307614,0.73275603,0.118899534,-43.7356564,42.562562,-135.658266,10.338833421684212,0.7424686534864208,148.75353674687125,17.327132352940822,28.390661764705982
43600,43600.0,2.34960176,-10.5537371,1.65108184,-0.208177188,0.275323482,0.17098846199999998,-41.9094852,42.860718,-136.995852,10.938941451719892,0.38653832249178416,149.5370444777784,17.278323529411413,28.37761764705893
43700,43700.0,1.71704486,-9.9648735,-1.13157196,-1.2907981924999998,-0.126975254,-0.6095817579999999,-42.571860578947366,43.53220105263158,-135.06807210526316,10.177124170908874,1.433203522620326,148.15839612345943,17.229514705881993,28.36457352941187
43800,43800.0,-1.3876906999999998,-11.34358345,0.6526985125,-1.38529438,0.187870793,-0.93172457,-45.7305925,43.07937675,-129.7405225,11.447015157740276,1.6801008029621214,144.15253919717452,17.180705882352587,28.35152941176481
43900,43900.0,1.09036108,-9.71588335,-0.18359375049999996,-0.671989423,0.12305450095,-0.75435412,-48.19946325,42.204666,-126.895525,9.781283800797397,1.0183509163733586,142.15127766025077,17.13189705882317,28.338485294117753
44000,44000.0,1.13764338,-7.552663430000001,-0.6109024115,0.14559707309999995,-0.652243806,-0.480323782,-50.021744,40.88973925,-126.730726,7.662766599580184,0.8233295790438213,142.24934905786088,17.083088235293758,28.32544117647069
44100,44100.0,0.92355423365,-8.15744201,-1.97290568,0.16856536449999998,-0.5891891335,0.139614105635,-50.65193175,40.3251645,-126.61934,8.44564793918383,0.6294082612787071,142.21195326176996,17.034279411764345,28.312397058823628
44200,44200.0,3.44841691,-9.32263785,-2.45353551,0.28642883,-0.3237709085,0.251790615,-49.752045,41.21742225,-126.1878975,10.238342575967637,0.5004524627396408,141.76580036648997,16.985470588234932,28.299352941176572
44300,44300.0,2.3781494600000004,-7.82601318,-2.947576875,0.1253669767,-0.365853118,-0.2728057975,-49.599837,40.623094,-125.90026625,8.696854050068934,0.4761853671808096,141.2843380046593,16.93666176470552,28.286308823529517
44400,44400.0,2.46595533,-13.447485,-4.47298198,0.15710297,-0.8177406229999999,0.6701637275000001,-48.17581125,41.5695195,-127.63900749999999,14.418309678780286,1.0738295851415394,142.62086621005233,16.887852941176103,28.27326470588245
44500,44500.0,-2.2070465,-8.720856,0.23802185,0.5391083000000001,0.26628113,0.3928833,-46.48628225,41.409302,-131.3148525,8.998946495394652,0.7182622687722479,145.32503880432864,16.839044117646694,28.26022058823539
44600,44600.0,0.6157074,-9.80542,0.56243896,0.37931824,0.30249023,0.05198669400000001,-45.1828,41.860962,-133.39844,9.840817779155381,0.4879398352206962,146.93185274078266,16.79023529411728,28.247176470588336
44700,44700.0,1.5446625,-9.734802,1.1597899999999999,0.5401764,-0.07141113,0.11590576,-44.38591025,41.60232625,-135.05058250000002,9.924588911497052,0.5570675343313541,148.12003164232482,16.741426470587868,28.23413235294128
44800,44800.0,0.5462799,-9.460663,0.9000244000000001,0.22592163,0.20022583,0.06477356,-44.26612925,41.0381325,-136.15798999999998,9.519065607994746,0.30875002830140663,148.93831142463347,16.692617647058455,28.221088235294214
44900,44900.0,0.57740784,-9.538467,0.8138274999999999,0.37825012,-0.023483276,0.2480011,-43.319702,41.15486175,-137.106325,9.590519679534511,0.4529118712651685,149.56126026484574,16.643808823529042,28.208044117647162
45000,45000.0,1.6488189999999998,-9.448685000000001,1.0029755,0.14602661,0.15655518,0.34814453,-41.8636325,41.22352575,-138.38768249999998,9.643765456375752,0.4087027146739368,150.34326558804457,16.59499999999963,28.1950000000001
45100,45100.0,0.7054901,-9.697693,1.5093536,0.11833191,0.22792053,0.2011261,-40.721893,41.45660475,-139.145275,9.839772054945172,0.3261930670951469,150.79258965541413,16.546191176470217,28.181955882353037
45200,45200.0,1.36193009,-9.78382065,1.436682885,0.03327713038,0.61690749,0.21129760399999997,-39.064789000000005,41.11938425,-140.06462249999998,9.982455427791448,0.6529941352258686,151.11241892134234,16.497382352940804,28.16891176470598
45300,45300.0,1.783306105,-11.58414025,0.735836053,-0.0910438545,-0.10774002025,-0.00436477661,-37.94174175,41.0892485,-140.13747999999998,11.744586569119564,0.1419493785414445,150.88553042100875,16.44857352941139,28.155867647058926
45400,45400.0,1.1918754999999999,-9.79692035,-1.274264552,-1.3332473500000002,-0.0718986525,-0.65810855,-38.93432625,41.6778575,-138.0874675,9.951489702994511,1.488642767770261,149.40268787767528,16.399764705881978,28.142823529411864
45500,45500.0,-0.995107245,-10.975898375,-0.121342469,-1.39472277,0.1260887135,-0.6870323,-40.93949168421053,42.77946068421053,-132.80783894736842,11.022625445116448,1.5600373135917942,145.4103303460523,16.350955882352565,28.129779411764805
45600,45600.0,0.940546445,-9.18503395,0.067494964,-0.555922681,0.2865173365,-0.6016525425,-42.4891664,42.7175906,-129.447785,9.233408266691393,0.8693709039431661,142.78259520980052,16.302147058823152,28.116735294117746
45700,45700.0,1.130641187,-8.085305850000001,-1.3274246,0.2519241365,-0.53571622,-0.353978722,-43.878479,41.7965686,-129.224852,8.27189949700505,0.6897680619208945,142.72821785269628,16.253338235293743,28.10369117647069
45800,45800.0,2.22606052,-8.85493,-2.24380337,0.1123642,-0.42379761200000005,-0.190359496,-44.81931989473684,41.32063989473684,-128.84770315789473,9.402749170593644,0.4791099309688767,142.5411917470356,16.20452941176433,28.090647058823627
45900,45900.0,2.36168055,-8.400035,-1.82853394,0.18076019399999999,-0.347956843,0.0966339105,-44.928131,41.0728461,-129.03381100000001,8.915528316291507,0.40406797299073455,142.67186796288377,16.155720588234914,28.077602941176572
46000,46000.0,3.55232555,-9.5147724,-2.74645841,0.24212341399999998,-0.59722595,-0.0037139892340000004,-44.831695200000006,41.2710571,-129.05761900000002,10.521957351671556,0.6449814013238433,142.72021414282432,16.1069117647055,28.06455882352951
46100,46100.0,-0.500938416,-10.7234866,-1.19717861,0.477438352,-0.0723800661,0.46425476,-44.3281558,41.17737,-129.931795,10.812289265317556,0.6816080700298403,143.32804980226575,16.058102941176088,28.05151470588245
46200,46200.0,-0.517457576,-7.87821651,1.14471592,0.267784118,1.06511994,-0.061665347500000016,-43.379975099999996,41.678314,-130.848237,8.028175538009684,1.1015856066375131,144.01447776623303,16.009294117646675,28.03847058823539
46300,46300.0,2.5779998600000003,-10.5569714,0.5022232010000001,0.45677186399999997,0.31047668500000003,0.44081879799999996,-41.7005916,41.64734,-132.636873,10.880622712925863,0.713524954026405,145.1413041642552,15.960485294117264,28.025426470588325
46400,46400.0,1.77247773,-10.186584800000002,1.323802173,0.446759038,-0.470568847,0.284866336,-40.8787532,41.564178600000005,-134.20638799999998,10.427048068620657,0.7119700049251523,146.32171122438578,15.911676470587851,28.012382352941273
46500,46500.0,0.56699675,-9.5060886,0.463978581,0.331115736,0.017699432305000002,-0.1681427015,-40.9542843,41.0037231,-136.00983,9.534597575928505,0.3737008861874647,147.84199803293976,15.862867647058444,27.999338235294214
46600,46600.0,1.08198392,-9.87976595,1.111132025,0.2360931365,0.0962646495,0.1663024855,-40.338745,40.4438785,-136.573179,10.000834838376434,0.3057730868947708,148.03771147615382,15.814058823529034,27.986294117647155
46700,46700.0,0.553290574,-9.758256699999999,0.3998764125,0.3150817845,0.148720553,0.30845489600000003,-39.5739747,40.294189700000004,-137.933047,9.782486840065664,0.4664486693326189,149.04786204206673,15.765249999999618,27.973250000000096
46800,46800.0,1.98118902,-9.64214515,1.363356745,0.112425993,0.289019778,0.3187370295,-37.9524234,40.4609692,-139.326021,9.938780109619604,0.4448251540066303,149.9640791289821,15.716441176470209,27.960205882353037
46900,46900.0,1.18092342,-9.82517715,1.0338058275,0.14225082249999998,0.29588393949999997,0.26361464399999995,-36.39282280000001,40.1431276,-140.2742,9.950321033156328,0.4221951435866565,150.37572121609054,15.667632352940798,27.947161764705978
47000,47000.0,1.446088375,-9.52141845,1.691074395,-0.015245819550000001,0.39687729,0.08523406975,-35.060730400000004,40.5917359,-140.770877,9.778545468803054,0.4062150402720477,150.6434167363667,15.618823529411387,27.934117647058923
47100,47100.0,0.23910140745000005,-11.68433205,-0.11278762240000002,-0.180632022,-0.3525413535,-0.1549827545,-35.2806089,40.2778625,-140.19973599999997,11.695986874588087,0.43075432064979546,150.0766538811042,15.570014705881976,27.92107352941186
47200,47200.0,1.07803348,-9.634237599999999,-1.70247496,-1.38539126,0.14931335799999998,-0.7437621999999999,-36.6656497,41.4370726,-136.977694,9.850520022790317,1.5809669803234117,147.73084239133155,15.521205882352564,27.908029411764804
47300,47300.0,-0.70635987,-11.706423599999999,-0.75987852,-1.30294192,0.32251891800000004,-0.68005064,-39.09698495,42.2949217,-131.81289850000002,11.758763052001125,1.5050016671509638,143.84832450451108,15.472397058823152,27.894985294117745
47400,47400.0,0.6066192539999999,-7.9386654,0.12645874,-0.32864684,0.22089844120000002,-0.61657106,-40.7666024,41.89880355,-128.79478550000002,7.963161763501088,0.7419888906621992,141.44117244409148,15.42358823529374,27.881941176470686
47500,47500.0,0.154348756,-7.69781496,-1.03760072,0.311151112,-0.247399898,-0.374536132,-42.443123684210526,40.982296789473686,-128.93668684210527,7.77096829685718,0.5467361435744029,141.79473300734267,15.374779411764331,27.868897058823624
47600,47600.0,3.24933472,-8.7926758,-2.54523618,0.155404664,-0.25634154600000003,-0.0198028562,-43.26194765,40.60127265,-128.5867285,9.714448686967957,0.30460323244977483,141.61440345887874,15.32597058823492,27.85585294117657
47700,47700.0,3.25507806,-9.3323336,-2.60987848,0.283666994,-0.600213624,0.243527222,-42.938308500000005,40.663223050000006,-129.020997,10.225659901089971,0.7079312440188174,141.92828165051404,15.277161764705511,27.842808823529506
47800,47800.0,2.062107095,-7.991824899999999,-3.0644798250000003,0.220069885,0.038043975000000015,-0.19008636625,-43.29658505,40.1218412,-129.16450600000002,8.90406945097232,0.3923730286174272,142.01360403373948,15.228352941176098,27.82976470588245
47900,47900.0,3.714111325,-14.17424775,-4.7924957,0.22060013,-0.9571876375,0.6685142374999999,-42.0912945,40.504607899999996,-129.735871,15.486997092514287,1.200840609681367,142.2804289843951,15.179544117646687,27.81672058823539
48000,48000.0,-2.954933175,-8.22375125,0.1500435,0.512481695,-0.10523987,0.34920501000000004,-41.124115100000004,40.62797525000001,-132.120822,8.876924369076056,0.6389522027040926,144.21453416960566,15.130735294117274,27.803676470588325
48100,48100.0,0.897930125,-9.52979625,1.40909195,0.43178940000000005,-0.05756378175,0.114040375,-40.197067600000004,40.188598799999994,-133.518144,9.679812000877694,0.4708070370976361,145.11388641000894,15.081926470587867,27.79063235294127
48200,48200.0,0.8063507075,-9.8721695,0.0818023675,0.5007667499999999,-0.1316032425,-0.0255050665,-40.29777525,39.403762799999996,-134.82895349999998,9.908847766108565,0.5205304778008721,146.13502703717575,15.033117647058456,27.777588235294214
48300,48300.0,0.495704655,-9.44779575,0.7264404250000001,0.182785035,0.193305975,0.0639839175,-40.325775,38.9730835,-135.9826665,9.49614565329773,0.2757103522787792,147.0930842852317,14.984308823529046,27.764544117647148
48400,48400.0,0.8790773073684209,-9.731333526315789,0.7312292842105262,0.3040257536842105,0.034937808,0.3430352505263158,-39.61608920000001,39.09706125,-137.17056250000002,9.798437285949626,0.4599758406233869,148.03309211740424,14.935499999999633,27.75150000000009
48500,48500.0,1.60200042,-9.4290589,0.91079408,0.20419463899999998,0.179879763,0.324700928,-38.2260132,38.86818005,-137.58239650000002,9.612125326343977,0.423873047244248,147.98948903504387,14.88669117647022,27.738455882353033
48600,48600.0,0.6397766180000001,-9.6119738,1.10018465,0.17318878399999998,0.33786316200000005,0.269416806,-37.17720045,38.4298707,-138.33763100000002,9.696082550067482,0.4667484256870609,148.31164201852232,14.83788235294081,27.725411764705967
48700,48700.0,2.29320986,-9.5683946,1.58428345,-0.0342132565,0.59224397,0.17279511,-35.33088675,38.8594815,-139.47143350000002,9.966867149532119,0.6185518114723759,149.03229820449016,14.7890735294114,27.712367647058915
48800,48800.0,0.606376644,-12.33477635,0.32182466,-0.120605467,-0.146836851,-0.15594787200000002,-35.35995459999999,38.573074299999995,-138.874512,12.370109667483812,0.24676264858296545,148.40599757365683,14.74026470588199,27.699323529411856
48900,48900.0,1.44123382,-9.597014199999998,-1.08823394,-1.39679258,0.20108643,-0.81363829,-36.44065895,39.36477525,-136.56257549999998,9.770239201332164,1.6295274007174214,146.72119922203132,14.691455882352574,27.686279411764804
49000,49000.0,-0.56366731,-10.825241400000001,-0.43989106,-1.31103516,-0.030827331400000005,-0.512913515,-38.68370095,40.17288195,-130.9878525,10.861084205187593,1.4084205805295942,142.36640900824204,14.642647058823163,27.67323529411773
49100,49100.0,1.27113041,-9.044913,0.28627777,-0.280183406,0.399002068,-0.5386978,-40.334199631578954,40.19084731578947,-128.66267315789472,9.139064925168077,0.737349707707088,140.69918889825158,14.593838235293756,27.66019117647068
49200,49200.0,0.7758201594999999,-8.343046300000001,-1.787649525,0.252661895,-0.5247390774999999,-0.419757836,-42.092285,39.2074588,-128.709714,8.568971148958116,0.7179411525015575,140.979658688914,14.545029411764345,27.64714705882362
49300,49300.0,1.819943225,-8.185863099999999,-2.2818756000000002,0.0882347101,-0.17021560849999998,-0.165853116,-43.2589722,38.587952,-128.43719199999998,8.691007119507661,0.25528252686546377,140.91307938662516,14.496220588234932,27.634102941176558
49400,49400.0,2.99082484,-8.606115699999998,-1.76711428,0.15295486560000002,-0.4877189725,0.2064071655,-43.163147,38.645935200000004,-128.72863600000002,9.284162559725198,0.5521603404883189,141.1653100320892,14.44741176470552,27.621058823529506
49500,49500.0,2.62289735,-9.1158325,-3.287018575,0.26805496300000003,-0.3390113855,-0.033116912799999995,-43.416138000000004,38.7979126,-128.46923600000002,10.042765915605344,0.4351414185227269,141.0481975171764,14.39860294117611,27.608014705882443
49600,49600.0,0.17590257400000006,-11.47239355,-2.2432632850000003,0.3912506125,0.10824508900000003,0.5957061499999999,-42.19696079999999,38.8555904,-130.26153399999998,11.733024819381953,0.7458744259057606,142.3322437426556,14.349794117646699,27.594970588235388
49700,49700.0,-1.020606193,-7.476705925,2.1224418999999997,0.30496979,0.99352568,0.042938996249999986,-41.1318968,39.3267824,-131.29363800000002,7.913088357784347,1.0464992735278396,143.0960414574326,14.300985294117286,27.581926470588325
49800,49800.0,2.55644838,-10.496154800000001,-0.017916864000000032,0.496502686,0.350427252,0.22605590600000003,-40.066528999999996,39.1775508,-133.107912,10.811006481101966,0.6522483312472942,144.42292093762924,14.252176470587877,27.568882352941266
49900,49900.0,1.76660768,-10.2002292,0.97615966,0.6053649879999999,-0.19988098,0.139132688,-39.60266,39.17694,-133.82416,10.410292351014762,0.6601515979149195,144.9555418276404,14.203367647058466,27.555838235294214
50000,50000.0,0.57717285,-9.302407800000001,0.7372131319999999,0.234869386,0.0421386706,-0.06496582000000001,-39.942932,38.771362200000006,-135.71868999999998,9.351947487894801,0.25527858010665305,146.69100744973122,14.154558823529054,27.542794117647148
50100,50100.0,1.08474118,-9.7587374,0.74415894,0.266403196,0.1254486064,0.188775638,-38.991698799999995,38.8647468,-136.67418999999998,9.848443091668337,0.3499268520015865,147.34536264603716,14.105749999999645,27.529750000000092
50200,50200.0,1.866206325,-9.4031999,0.47558823,0.081211092,0.30079117,0.22179336449999998,-38.118896,38.7692272,-137.81403,9.600960859211568,0.3830227485642103,148.1513097608501,14.056941176470232,27.51670588235303
50300,50300.0,1.00812606,-9.434802900000001,1.709442145,0.19918060399999998,0.069889067,0.25018463350000003,-37.496337200000006,39.183044,-137.843016,9.654272021222237,0.3292581754526746,148.12832948514094,14.00813235294082,27.503661764705967
50400,50400.0,1.38472747,-9.571874800000002,1.07970884,0.082588958,0.4483253525,0.305254362,-35.94024599999999,39.234926,-138.943176,9.734507047367696,0.5490674736600886,148.78291303377287,13.959323529411412,27.49061764705891
50500,50500.0,2.47864684,-11.1911898,1.7566681,-0.0333557128,-0.0856903066,0.12527770800000002,-34.7106932,39.7567756,-138.610228,11.598541229032529,0.19068138396440046,148.31803144139502,13.910514705882001,27.47757352941185
50600,50600.0,1.1448288,-10.5141065,-1.9987563999999998,-0.8942032,-0.14651489,-0.611129765,-36.1096196,40.135497799999996,-136.85333599999998,10.7636094792554,1.100602707647552,147.11838281386855,13.861705882352588,27.464529411764797
50700,50700.0,-1.616700025,-10.4379143,0.674253083,-1.601593765,0.16613540999999998,-0.69065094,-38.8803112,41.4358518,-131.53717,10.607330020384008,1.7520894028077612,143.2866907766643,13.812897058823175,27.45148529411773
50800,50800.0,0.978495805,-9.132531599999998,0.5310134805,-0.620958714,0.10025100509999997,-0.564208975,-40.83007840000001,41.7138668,-127.369992,9.204075612160533,0.8586804282582108,140.1081649889431,13.764088235293766,27.438441176470675
50900,50900.0,1.21858064,-8.2615202,-1.66213074,0.306352234,-0.6904418809999999,-0.270137024,-42.491531200000004,41.0757449,-126.61964350000001,8.515034612014444,0.8028023327443281,139.73303790465678,13.715279411764355,27.425397058823613
51000,51000.0,1.969333675,-8.999183625,-2.11966325,-0.018817901500000005,-0.4573059075,-0.4044685375,-43.96025,40.648369263157896,-126.82631736842104,9.455608990109212,0.611801961694665,140.24930345145313,13.666470588234944,27.412352941176557
51100,51100.0,2.1262046210526315,-8.319761631578947,-1.6705337894736842,0.009006700684210528,-0.2883389210526316,0.03965839552631578,-45.1741785,40.185165399999995,-126.095733,8.751927814153818,0.2947343143699267,139.84174471904302,13.617661764705534,27.399308823529502
51200,51200.0,3.32404172,-9.4336092,-2.99654232,0.37633972600000004,-0.529263304,0.0217468264,-45.11779765,40.301057,-125.51826275,10.443324858372558,0.6498263230149611,139.33637474311823,13.568852941176123,27.38626470588244
51300,51300.0,0.933005505,-9.000678050000003,-1.75466765,0.409573361,-0.292025764,0.251790609,-44.8793793,40.163041,-125.75362949999999,9.22310507982267,0.5681841906098701,139.4317589242689,13.52004411764671,27.373220588235377
51400,51400.0,3.293688185,-12.49376025,-3.604844675,0.154821773,-0.27711944800000005,0.30446243300000003,-43.64929265,40.8233653,-126.8099205,13.419518446741035,0.4427868968929611,140.18778114504116,13.471235294117301,27.36017647058832
51500,51500.0,-0.7455047399999997,-8.590962300000001,0.07749938950000003,0.576817296,0.12884979250000006,0.5689682220000001,-42.7856448,40.7650758,-128.788452,8.654813223596536,0.8289418539874771,141.70055160144042,13.422426470587888,27.347132352941266
51600,51600.0,0.1277755747,-9.8427733,1.43536222,0.5285629279999999,0.0706878664,0.15127411,-41.3330082,40.651856200000005,-130.935366,9.950438972800306,0.5578470183748676,143.19617528854934,13.373617647058476,27.334088235294203
51700,51700.0,0.63654938,-10.0765759,0.6607269299999999,0.5305923459999999,0.2011871314,-0.092240909,-41.183471600000004,40.072022,-132.680054,10.118473260394127,0.5777785283081021,144.5886824263788,13.324808823529064,27.321044117647144
51800,51800.0,1.0033417,-9.2652894,1.20587925,0.146986395,0.30324096500000003,0.0316528316,-41.087340999999995,39.5074464,-133.627624,9.399634415357047,0.3395756545619975,145.27695731546012,13.275999999999653,27.308000000000085
51900,51900.0,0.9726242095000001,-9.5570228,0.670000453,0.25234756350000004,0.1589546195,0.3184104915,-39.98291079999999,39.526061999999996,-135.160218,9.629733595406282,0.4364102175561119,146.38734977350248,13.227191176470244,27.294955882353026
52000,52000.0,1.40275425,-9.618264775,1.007878108,0.2207031215,0.11623306425,0.3049888585,-39.00564168421053,39.61647468421052,-135.85799157894738,9.772442468921122,0.3940206153310409,146.79343799944337,13.178382352940831,27.281911764705967
52100,52100.0,0.757567585,-9.42959765,1.48779985,0.04760513335,0.45471802200000006,0.237672425,-37.689514200000005,39.65332,-137.050172,9.576296413845924,0.5153064595467601,147.56591027973957,13.12957352941142,27.26886764705891
52200,52200.0,2.25287321,-9.97446255,1.548612185,0.011325072899999995,0.5966072275,0.20246047600000003,-36.031622842105264,39.75733610526316,-137.9324642105263,10.343074440680082,0.6301771035215277,148.00102799977938,13.080764705882013,27.25582352941185
52300,52300.0,2.515089435,-12.3443015,0.1171745301999999,-0.289775082,-0.2936363198,-0.2721069385,-35.482941649999994,39.7801985,-137.68562500000002,12.600294552905815,0.4947888416926263,147.64432264822918,13.0319558823526,27.24277941176479
52400,52400.0,-0.951290893,-9.325748,-1.51926418,-1.628705575,-0.049893951350000014,-0.91143033,-37.34565715,40.3253165,-134.2293575,9.503753642351072,1.8671015395503987,145.04707147992494,12.983147058823187,27.22973529411773
52500,52500.0,0.150880436,-11.858153199999999,0.22480621399999998,-1.33202442,0.151016237,-0.4520401075,-39.134749400000004,40.5204011,-128.5502615,11.865975271965599,1.4147578044915263,140.35179295652605,12.934338235293778,27.216691176470672
52600,52600.0,0.8168335,-9.009354,-0.11392212,-0.11709595,-0.06929016,-0.7032776,-41.0537719,40.4871362,-125.995102,9.047024633185409,0.7163183443420865,138.56208954237775,12.885529411764367,27.20364705882361
52700,52700.0,0.8671112,-8.177368,-1.809021,0.25575256,-0.47302246,-0.52005005,-43.1538383,39.458694,-126.2435895,8.419844785922745,0.7480719712140055,139.12852333071658,12.836720588234956,27.190602941176554
52800,52800.0,1.1172943000000002,-7.6398773,-1.6785278000000001,0.15242004,-0.37394714,-0.14826965,-44.41711425,38.93890415,-125.7708738,7.901488928502059,0.4301769650026646,138.9512966406815,12.787911764705546,27.177558823529488
52900,52900.0,2.8219757000000003,-9.131454,-2.624237,0.40275574,-0.46769714,0.30233765,-44.166945,39.21340835,-126.1036675,9.911287446022113,0.6872851340416506,139.25010463803406,12.739102941176133,27.16451470588244
53000,53000.0,4.491928,-9.795853,-3.5783233999999995,0.046966553,-0.46769714,-0.20260620000000001,-43.909149400000004,39.23164345,-126.28761295,11.355199316162643,0.5118551984138887,139.34026323117382,12.690294117646722,27.151470588235373
53100,53100.0,-1.256546,-10.233994000000001,-2.545227,0.6339264,-0.39419556,0.6251068000000001,-43.625749047619045,38.83376380952381,-127.2318521904762,10.620344698910717,0.973658734643157,139.99748609487912,12.641485294117313,27.13842647058832
53200,53200.0,-0.9069976999999999,-6.8342285,0.8593291999999999,0.35055542,1.1578979999999999,0.12123108,-42.259979,39.501953,-128.72696000000002,6.947501039365895,1.2158593075077984,141.12767630883724,12.5926764705879,27.125382352941262
53300,53300.0,3.381012,-11.281448,0.24520874,0.41979979999999995,0.04789734,0.4525299,-40.2748105,39.739227500000005,-131.42395,11.779746960228831,0.6191198088036964,143.0859886567403,12.54386764705849,27.1123382352942
53400,53400.0,0.72465515,-10.213638000000001,1.0592346000000001,0.74684143,-0.6423949999999999,0.26185608,-39.4004815,39.360046000000004,-132.55844000000002,10.293954741463684,1.019319412266053,143.78279281359409,12.49505882352908,27.099294117647144
53500,53500.0,0.39437255200000004,-9.451317199999998,0.30476913,0.3211029075,0.2070961025,-0.12393264400000001,-39.6987915,38.75351,-134.21020499999997,9.465660591384607,0.4020007929449165,145.22471568324437,12.446249999999669,27.086250000000078
53600,53600.0,1.605957785,-9.663155,1.068869025,0.2944709775,0.12027740425000001,0.1661300675,-39.167022499999995,38.5185235,-135.25696000000002,9.85390982749263,0.3588588699308915,145.98699045466645,12.397441176470256,27.073205882353026
53700,53700.0,0.776242815,-9.723719625,0.93616943,0.228102109,0.06003647,0.2789504995,-38.3918765,38.329315,-136.55243000000002,9.800255563925537,0.365618393133208,146.93434751227392,12.348632352940845,27.060161764705963
53800,53800.0,0.771277612,-9.52499835,1.415676085,0.16520691,0.2875862165,0.22702178550000002,-37.1765135,38.1378175,-137.70065499999998,9.6605795456171,0.4021666722240848,147.64167212952017,12.299823529411436,27.047117647058908
53900,53900.0,1.253473625,-9.5859989,1.220961715,0.10608367880000001,0.61397631,0.3391860935,-35.6193545,38.3216865,-138.390355,9.744757270952228,0.7094681726009119,147.9501066618787,12.251014705882024,27.034073529411845
54000,54000.0,2.20061275,-11.1097809,1.92516405,-0.007479858349999998,0.2013961746,0.2398025545,-33.571625,38.3117675,-139.0892,11.488148355708375,0.31566790113281035,148.12378803905438,12.202205882352615,27.021029411764783
54100,54100.0,-1.057177705,-9.9898418,-1.1969917099999998,-0.676410657,0.02323379505,-0.274835967,-33.7150575,38.54599,-138.21335,10.116887264284312,0.7315730052740274,147.39596930141204,12.153397058823199,27.00798529411773
54200,54200.0,-0.6247268659999999,-10.114036599999999,-0.13079681499999998,-1.44398958,0.52587586,-0.7923401139999999,-34.336090000000006,39.764404,-134.55428999999998,10.135844790653268,1.7292597995318664,144.44754307011013,12.10458823529379,26.99494117647067
54300,54300.0,0.28639526600000004,-11.0567502,-0.147323605,-1.00339047,0.12374420300000001,-0.72724154,-36.1740115,40.2801515,-130.9227,11.061535700996695,1.245699550186896,141.67534902803698,12.055779411764377,26.98189705882361
54400,54400.0,0.96658478,-8.7094833,-0.33406218600000004,-0.107818607,-0.255171202,-0.594721966,-37.8730775,40.330505,-129.19769,8.769575981426312,0.6587667543720022,140.54530536325183,12.006970588234966,26.968852941176554
54500,54500.0,-0.268469242,-8.257579,-1.3833221000000002,-0.0273910522,-0.65570834,-0.420132438,-39.967347,40.2923585,-128.41644499999998,8.380161433579714,0.7797599298270048,140.39829759413152,11.958161764705556,26.955808823529487
54600,54600.0,2.74583433,-8.858162,-1.97793269,0.005311584460599999,-0.505618274,-0.16617432,-40.911864,39.8722075,-127.493059,9.482693656192716,0.5325170114339829,139.70727343860187,11.909352941176145,26.94276470588243
54700,54700.0,2.80401605,-9.103928999999999,-2.57024843,0.29282837300000003,-0.78769225,0.11632995900000001,-41.223385263157894,39.49946368421053,-127.63816399999999,9.866837637563675,0.8488365853102973,139.8252751385755,11.860544117646734,26.92972058823537
54800,54800.0,0.5969131489999999,-9.368238900000001,-1.89353483,0.47412873,-0.0456344605,0.180145262,-40.97282435,39.727783,-127.910233,9.593117657027236,0.5184046800173916,140.06474602120673,11.811735294117325,26.916676470588317
54900,54900.0,4.124532325,-11.8131999,-3.8719215333499997,-0.0309051515,-0.153813931,0.197137452,-39.236831,40.4388425,-129.294589,13.17151682825017,0.4862984336413741,141.03876307317518,11.762926470587912,26.90363235294125
55000,55000.0,-0.73778688,-9.22986155,-0.264938355,0.63328855,0.0339988704,0.4594001735,-38.35899335,40.200806,-131.3495685,9.309329463344076,0.7864443321062645,142.61928899511915,11.7141176470585,26.8905882352942
55100,55100.0,0.4401023895,-9.58569865,1.46709135,0.530487829,-0.199781036,0.121128085,-37.14981035,40.28427145,-132.6318355,9.711494215798432,0.5803590299695068,143.50658245060885,11.665308823529092,26.877544117647137
55200,55200.0,1.0343955595,-9.89203115,0.721414155,0.55993499,0.08640517950000001,-0.012394714259999998,-36.9774633,40.09506215,-134.913023,9.973190722614241,0.5687258042357898,145.52163521080726,11.61649999999968,26.864500000000078
55300,55300.0,0.491220095,-9.7878911,1.04810256,0.2248046865,0.40049819999999997,0.055834960499999996,-36.73233135,39.464949700000005,-136.32530549999998,9.858763737932957,0.4634496525225636,146.59926934917152,11.567691176470268,26.85145588235302
55400,55400.0,0.5465774725000001,-9.59952315,0.7663703884999999,0.2623001075,0.2430015575,0.2456527725,-35.520934999999994,39.5887767,-137.0737435,9.645876037714363,0.4340355659277759,147.03137054250442,11.518882352940855,26.838411764705963
55500,55500.0,1.04906918,-9.7750242,1.75523072,0.183526608,0.20300293600000002,0.371578982,-33.8579566,39.58419779999999,-138.256529,9.987099056813802,0.4618702959171637,147.74359816484773,11.470073529411446,26.825367647058897
55600,55600.0,0.91810606,-9.7790924,1.35012818,0.17990417399999997,0.380465696,0.268023694,-32.0001975,39.72457895,-139.31259350000002,9.916148994061249,0.4998619189098958,148.35794658871066,11.421264705882034,26.81232352941184
55700,55700.0,1.7905487,-9.9383058,1.81867982,-0.00907897948,0.585647582,0.222866824,-30.10704035,39.67521645,-140.429075,10.262728356402976,0.6278119001674255,148.99969191987307,11.372455882352623,26.799279411764783
55800,55800.0,0.37102661,-11.7866272,0.8490295659999999,-0.139245604,-0.361596676,-0.0666717528,-29.393005,40.470886,-140.22217,11.831511481452837,0.3969652697127045,148.87611734614762,11.323647058823214,26.786235294117727
55900,55900.0,0.20367736600000003,-9.7711948,-1.09913938,-1.48467716,0.27458190000000005,-0.820452872,-30.71907065,42.020034499999994,-137.4579665,9.839356190488305,1.7184036191208456,146.98411340050941,11.274838235293801,26.773191176470664
56000,56000.0,0.49576722,-11.6616516,-0.1108093268,-1.34001462,0.110958864,-0.60271301,-32.96501145,44.355698100000005,-131.5744795,11.67521066548444,1.4739809122138947,142.70999409574068,11.22602941176439,26.760147058823605
56100,56100.0,1.11035152,-9.1264284,0.15878296,-0.303305057,0.1045684806,-0.647888186,-35.28343275,45.04074135000001,-128.06747230000002,9.1955516997883,0.7348974827919548,140.2675494715695,11.17722058823498,26.747102941176546
56200,56200.0,0.0979728725,-8.11002725,-1.519615175,0.3316497775,-0.6144332875,-0.6140670775,-38.2775875,44.63905335,-128.5656005,8.254285417709394,0.9392516601263472,141.37565030259074,11.128411764705568,26.734058823529487
56300,56300.0,1.465061175,-8.454502,-2.04843905,-0.14798736499999998,-0.0511779775,-0.1927490275,-40.1421349,44.6274568,-127.69569399999999,8.825230876012624,0.2726593063782985,141.10002787825402,11.079602941176157,26.72101470588243
56400,56400.0,2.595416975,-8.77681725,-1.67972945,0.086112976,-0.29911423,0.2948761,-39.815978,45.2108764,-127.256166,9.318297873475768,0.43173723059960106,140.7959037045294,11.030794117646746,26.70797058823537
56500,56500.0,3.3041076250000003,-8.582290500000001,-2.354595175,0.24057007,-0.2035064675,-0.18662262,-39.910808421052636,45.38606294736842,-127.23228073684211,9.501544828473852,0.36723182231180196,140.85752465927953,10.981985294117337,26.694926470588307
56600,56600.0,0.69472123,-10.69637275,-0.71606065,0.6594924950000001,-0.2623634325,0.7084655925,-39.1851804,45.8212276,-128.948366,10.772832139903684,1.006547823223363,142.34756059605243,10.933176470587924,26.68188235294125
56700,56700.0,-0.18395234999999996,-8.519145625,0.48702240950000003,0.21260834,1.042854315,-0.10539627175,-38.430787,45.897216,-130.249024,8.648866252133189,1.071945520127414,143.3467513807355,10.884367647058511,26.66883823529419
56800,56800.0,1.6084671,-9.67985075,0.55561827,0.438229366,0.34872131100000003,0.5684280389999999,-36.765748,46.407776,-132.192382,9.832987820356397,0.7986342748939191,144.84594887192188,10.8355588235291,26.65579411764713
56900,56900.0,1.40435941,-9.9821198,0.909124752,0.62753296,-0.13416443179999998,0.247685242,-35.60363680000001,46.3140872,-133.91541,10.12142696710732,0.6981126129938375,146.10253838722628,10.78674999999969,26.642750000000078
57000,57000.0,1.17404784,-9.5457766,0.332594304,0.29314727500000004,0.29642334200000003,-0.11056213279999999,-35.5523692,45.7531742,-135.754696,9.626352234850613,0.43531818720580695,147.6033170872291,10.73794117647028,26.62970588235301
57100,57100.0,0.753138731,-9.609101800000001,1.47068633,0.278016665,0.197462461,0.146585079,-35.28198300000001,45.584412,-136.55639399999998,9.751140015458091,0.3746888847782688,148.22443043182713,10.689132352940867,26.616661764705963
57200,57200.0,1.20025788,-9.6612913,0.6738876330000001,0.213038633,0.25199737899999997,0.272073374,-34.214782400000004,45.4711916,-137.92511399999998,9.761349033877027,0.42880477318703136,149.20336157107064,10.640323529411457,26.603617647058893
57300,57300.0,1.088928225,-9.631370500000001,1.35695497,0.16861725,0.254551699,0.241400151,-33.244018,45.450134000000006,-138.879084,9.787685471138172,0.3900010611859995,149.86096189392836,10.591514705882048,26.59057352941184
57400,57400.0,0.99747392,-9.5221304,1.331699395,0.0851562525,0.428990173,0.255035399,-31.488647200000003,45.70526160000001,-139.12964,9.666434341449602,0.5066205629622305,149.79197697066607,10.542705882352637,26.57752941176478
57500,57500.0,2.37712554,-10.462395,2.14285123,-0.032725524900000004,0.310159299,0.271965026,-29.814452600000003,46.020508,-139.665836,10.941580947987909,0.4202198675118469,150.0449224634138,10.493897058823224,26.564485294117716
57600,57600.0,0.14849090400000006,-11.7823229,-1.61831663,-0.24087066399999998,-0.42987671,-0.25352173,-30.047607399999997,46.2469482,-139.216916,11.906651373214247,0.5716952965869198,149.74366959917006,10.445088235293813,26.55144117647066
57700,57700.0,-1.060940589,-9.7845965,-0.4499450680000001,-1.94316101,-0.03786315929999999,-0.926771548,-32.641296399999995,47.808838,-133.400882,9.899279682725698,2.153760552100605,145.42186210600838,10.396279411764402,26.5383970588236
57800,57800.0,0.5918960600000001,-11.8813139,-0.258770753,-1.0989502290000002,0.067495729,-0.690600608,-35.653381200000005,48.3288572,-126.879577,11.901089745825185,1.3020010039691985,140.3759798680043,10.347470588234989,26.525352941176546
57900,57900.0,0.168119811,-7.791545139999998,-0.415112301,-0.100576783,-0.0264587402,-0.643305978,-38.699646,47.6907344,-124.093322,7.804454074782095,0.6669245625371433,138.46064930497474,10.29866176470558,26.512308823529487
58000,58000.0,-0.7644271920000001,-8.06531829,-1.19538571,0.225183104,-0.25921783600000003,-0.0652862541,-39.8294064,47.356567600000005,-123.98803799999999,8.190253845549368,0.35075231410635993,138.57159146546385,10.249852941176167,26.499264705882425
58100,58100.0,4.09304958,-9.2715224,-1.51189727,0.21079254,0.16081848199999998,-0.051119994200000005,-39.7198484,47.56775,-124.9209604,10.247983486011472,0.2704288341148669,139.44752442386178,10.201044117646758,26.48622058823537
58200,58200.0,4.1611739100000005,-9.986305300000001,-2.97211759,-0.117193603,-0.5015747110000001,-0.275579835,-40.17502547368421,47.14218957894738,-124.93141594736844,11.219852164852174,0.5851209217212513,139.44301379590695,10.152235294117348,26.473176470588307
58300,58300.0,0.29082031,-7.08046259,-1.1253540400000002,0.35929717899999997,-0.31684875100000004,0.1114318844,-41.1886596,46.78138735,-123.95736399999998,7.185552064317824,0.5002085774567538,138.74594542957814,10.103426470587936,26.46013235294125
58400,58400.0,3.122318275,-14.3476511,-4.12139205,0.67657928,-0.240902705,0.6485404965,-38.5740669,47.78381385,-125.96489050000001,15.271276247479554,0.9712083206768756,140.13728171416443,10.054617647058524,26.44708823529419
58500,58500.0,-2.2406280350000003,-6.75725479,1.756549845,0.208137514,0.8815742849999999,0.150688936,-37.79212920000001,47.762908,-126.6900665,7.34269682701906,0.9375890930880224,140.57010119896404,10.005808823529113,26.43404411764713
58600,58600.0,2.058697555,-10.9032935,0.3198524495,0.4506958075,0.44566421549999996,0.253702543,-35.72921795,47.88162175,-129.50546599999998,11.10658796476002,0.6862759169414445,142.62167255271615,9.956999999999702,26.42100000000007
58700,58700.0,1.42363203,-10.157549900000001,1.5204216,0.538368986,-0.432641606,0.250242615,-34.721756299999996,47.9667656,-130.87768649999998,10.373750328868713,0.7405291190263259,143.65040136127791,9.908191176470293,26.40795588235301
58800,58800.0,0.4697814915,-9.635432525,-0.06519698649999997,0.35189057100000004,0.0264259344,-0.021248626800000003,-34.530564500000004,47.3842615,-132.194061,9.648493881592874,0.3719577749617375,144.61300834399682,9.859382352940882,26.39491176470595
58900,58900.0,1.102873975,-9.48143035,1.31529463,0.280999755,0.25796966450000003,0.20810851649999998,-33.861465450000004,47.383117999999996,-133.91334650000002,9.637160963884877,0.4353292494582023,146.02931587197642,9.810573529411467,26.381867647058893
59000,59000.0,0.9815490675,-9.704091499999999,0.7588905225,0.2760459925,0.228240205,0.48433532700000004,-32.1786491,47.0006561,-135.34271,9.78771293220612,0.6029091735950552,146.84076324593372,9.761764705882056,26.368823529411834
59100,59100.0,1.94281924,-9.7857938,1.40807194,0.1632843,0.27713928,0.301690678,-30.127105800000002,47.05772355,-136.1549405,10.076101789984284,0.4422924431219597,147.1741862569525,9.712955882352649,26.355779411764768
59200,59200.0,1.73955078,-10.4099608,2.24173584,-0.0431640622,0.355328366,0.11377868699999999,-28.37760945,47.26241975,-136.5711215,10.790917976077537,0.3758437290123281,147.27780835560978,9.664147058823236,26.342735294117716
59300,59300.0,1.0653412,-11.5733033,-0.29755249500000003,-0.372116082,-0.07887573340000001,-0.19322814600000002,-27.84393285,47.7246095,-135.71258600000002,11.630012437216664,0.42808913252661385,146.5298122532831,9.615338235293825,26.329691176470657
59400,59400.0,-0.409484876,-9.5640902,-0.931777956,-1.65533446,0.08475341800000001,-1.00048828,-29.97177125,49.22798045,-131.3369755,9.640963589448726,1.9361907224670207,143.42812383804375,9.566529411764414,26.316647058823598
59500,59500.0,0.5118072539999999,-11.552954199999999,-0.35908203200000005,-1.15359496,0.23111572,-0.6378753620000001,-32.93724035,50.23529105,-124.77111709999998,11.574740843371202,1.339042178420942,138.47891825024692,9.517720588235004,26.30360294117654
59600,59600.0,0.255627442,-8.205138999999999,-0.013125610999999995,-0.1603393548,-0.03327636599999999,-0.65895994,-35.7763676,50.0878906,-121.74827900000001,8.211227169150458,0.6998504907795344,136.42417192598953,9.468911764705592,26.290558823529484
59700,59700.0,0.3500253757894737,-8.457115052631579,-1.999978336842105,0.0966363192631579,-0.5826921821052631,-0.3750088326315789,-37.7665695,50.070266700000005,-121.6395564,8.698136290357008,0.7058923597877099,136.8561363284907,9.42010294117618,26.27751470588242
59800,59800.0,2.295484945,-8.0843504,-1.823918925,0.02576293983,0.015777588000000002,-0.019426729500000003,-38.65142720000001,50.1374055,-121.62292450000001,8.6029762216577,0.06914126473933943,137.11263804489874,9.37129411764677,26.26447058823536
59900,59900.0,3.67933343,-9.5450609,-2.674755905,0.34267577850000003,-0.5902526965,0.3887817375,-37.4377445,50.856094299999995,-122.03430300000001,10.584020150107278,0.7864251432122557,137.4060720178688,9.322485294117358,26.251426470588303
60000,60000.0,0.333264915,-8.683322725,-2.0195861500000003,0.3637161275,0.36721419299999997,-0.043612671500000005,-37.003937,51.404724,-122.538147,9.077435234168828,0.5478095426760359,137.93970853137668,9.273676470587947,26.238382352941247
60100,60100.0,4.04774553,-11.633036,-2.31628874,0.27940216,0.16464691499999995,0.3245948875,-34.57845033333333,52.04722,-123.95477333333334,12.599969531810533,0.7797907247518956,138.81437804099912,9.224867647058536,26.225338235294185
60200,60200.0,-0.6988227650000001,-9.116967175,0.5930870064499999,0.54364397,0.15820159095,0.5361557175,-33.569794,52.822723,-126.565855,9.304167269454208,0.7944148151719829,141.19558147985873,9.176058823529123,26.21229411764713
60300,60300.0,0.309501646,-9.34580395,1.65167923,0.540975946,-0.029495238500000017,0.215245057,-31.998290899999997,52.6618956,-128.66638400000002,9.49748146121032,0.6152837732237111,142.66125053971692,9.127249999999712,26.19925000000007
60400,60400.0,1.106462095,-9.68655505,0.2155227655,0.440525051,0.13391037050000001,-0.10438232300000001,-31.6947943,52.626343000000006,-131.816559,9.7522158189322,0.4751635052751754,145.42938154016042,9.078441176470305,26.18620588235301
60500,60500.0,0.7469223249999999,-9.4609035,1.40089645,0.191304015,0.2480552745,0.1347625765,-31.952362599999997,52.80014010000001,-132.291567,9.603052049835279,0.3481836129182769,145.97908133708972,9.029632352940894,26.17316176470595
60600,60600.0,0.81479569,-9.614667775,0.7189666650000001,0.22134322899999997,0.2697334255,0.3515480045,-30.5262756,52.80899,-133.977047,9.68211049167404,0.4969516580143684,147.20918709411285,8.98082352941148,26.160117647058893
60700,60700.0,1.829393805,-9.8165584,1.56046676,0.1010772685,-0.012021636735,0.260413361,-28.8830564,52.9080189,-135.034179,10.11666428464057,0.2807379199172613,147.87738119543909,8.93201470588207,26.147073529411827
60800,60800.0,0.877102653,-9.423664800000001,0.71243898,0.0782814015,0.411945345,0.15793914550000002,-28.020324900000002,53.65310700000001,-135.47546599999998,9.492616873553605,0.4491369573954181,148.38265623433745,8.883205882352659,26.134029411764768
60900,60900.0,3.07366108,-10.794409825,1.74206925,-0.1457427965,0.047732548,0.167364505,-26.414490100000002,54.203491299999996,-135.743564,11.358251076272257,0.26395855767629683,148.5331128838801,8.834397058823248,26.120985294117713
61000,61000.0,1.213240055,-11.39428095,-2.52942578,-0.833271765,-0.414639284,-0.763039375,-28.4310912,55.07949789999999,-134.07608299999998,11.735333399876197,1.2288121842882642,147.7113491441235,8.785588235293838,26.107941176470646
61100,61100.0,-2.576053615,-10.00833175,0.7083091719999999,-1.70688933,0.464147189,-0.6647163535,-33.5423275,56.722412899999995,-126.049196,10.395827667482276,1.8909183210919736,142.2370702255426,8.736779411764426,26.094897058823594
61200,61200.0,1.702139285,-9.5609162,0.568363961,-0.6865829455,0.20347671550000002,-0.647135905,-36.4967349,56.497802799999995,-120.516205,9.738636949308779,0.9773569078256286,138.01578195408513,8.687970588235013,26.08185294117653
61300,61300.0,1.2723236,-7.6973267000000005,-1.259552,0.29570007499999995,-0.6248169,-0.39328766,-39.7761542,56.1950686,-120.4423528,7.9086276255022625,0.7968539178351968,138.73151822060933,8.639161764705603,26.068808823529483
61400,61400.0,1.64551845,-8.6046806,-2.322990385,0.05254898115,-0.539170843,-0.21154861,-41.49383529999999,55.930787,-120.5285655,9.069485157733137,0.5817902565230172,139.20190747443087,8.590352941176192,26.055764705882417
61500,61500.0,2.47026368,-8.5594816,-2.07141718,0.06571350000000001,-0.28063049,0.01854858384,-42.277069399999995,56.343231,-120.46615600000001,9.146796828679092,0.28952634355250445,139.54938389897274,8.541544117646781,26.04272058823536
61600,61600.0,3.28500976,-9.2506928,-3.0609406000000003,0.3179657,-0.46620788799999996,-0.0174621586,-42.63381939999999,56.47552475,-121.104047,10.284146279226892,0.5649379967937367,140.2616437516097,8.49273529411737,26.029676470588303
61700,61700.0,0.29723205550000004,-9.014625599999999,-1.644291695,0.5219108570000001,0.08885574215000001,0.377803049,-42.5366213,56.893617000000006,-122.560423,9.185651941866356,0.6566659412961859,141.65918208558034,8.443926470587959,26.016632352941237
61800,61800.0,3.34330442,-11.14103165,-2.011686732935,0.08627471695,0.2348442055,0.0498100266,-40.703582399999995,57.2601322,-124.3301382,11.875381437805851,0.3829782766742556,142.8058272138161,8.395117647058548,26.00358823529418
61900,61900.0,-0.617242425,-8.753417675,-0.170666505,0.51291046,0.0353294376,0.56822431,-40.1467898,57.24227809999999,-127.58438400000001,8.850388920228427,0.7669955344033969,145.4864586522679,8.346308823529137,25.990544117647122
62000,62000.0,1.51844866,-9.71702005,0.8219085859999999,0.5140251250000001,-0.343641662,0.14994659300000002,-39.0396122,57.12554920000001,-130.50109700000002,9.888572643091818,0.6414320122544455,147.7091244114251,8.297499999999728,25.977500000000067
62100,62100.0,0.8189193675,-9.69385165,-0.2873779305,0.4417991625,-0.009949492900000002,-0.02565765504,-39.5693967,56.854401,-132.871399,9.733237995625263,0.4481850528507913,149.84328953425845,8.248691176470315,25.964455882353004
62200,62200.0,1.26011051,-9.6408221,1.00824279,0.28451080700000003,0.280126945,0.159478764,-39.459686600000005,56.632995900000004,-134.4014,9.775268902044797,0.43286389883524223,151.08976140226787,8.199882352940904,25.951411764705945
