Unnamed: 0,st,ax,ay,az,gx,gy,gz,mx,my,mz,AccTotal,GyrTotal,MagTotal,lat,lng
11000,11000.0,0.10491484500000003,-9.6272922,0.192776494,-1.69250949,-0.973049948,-0.730021675,-41.120833700000006,40.02494779999999,-129.5792405,9.659414660597283,2.0860611423920083,141.71771172351143,33.19,32.63
11100,11100.0,3.2875197999999997,-10.1082903,-0.440011595,-1.22964783,-0.20414581,-0.601115415,-43.6936947,39.9386605,-123.77357450000001,10.664116046054268,1.3863435800593602,137.20165921985665,33.119382978723394,32.61112765957447
11200,11200.0,1.98592067,-7.1470185,-1.11337431,-0.090992738,-1.030149838,-0.789349348,-46.7620849,38.31428555,-121.611556,7.50834353168009,1.3064655133664411,135.80956282867191,33.048765957446804,32.59225531914894
11300,11300.0,2.015695663157895,-7.124228184210527,-1.8519207157894737,0.3330680447368421,-0.2434242631578947,-0.16486720315789474,-48.7220766,37.462691,-120.216753,7.6412454299127015,0.4578805751847478,135.01620423076722,32.978148936170214,32.57338297872341
11400,11400.0,3.72100065,-7.987632575000001,-3.065368625,0.30342865,-0.12068176,0.228832245,-48.44177265,37.9199219,-121.0972605,9.33336246689076,0.3989118052798669,135.82745402783908,32.90753191489361,32.55451063829788
11500,11500.0,5.81443005,-9.26822275,-5.115409775,0.4208641125,-0.3364028875,-0.13868713324999998,-48.18649275,38.63738995,-120.9622925,12.09100777175493,0.5814980900789379,135.81849226128782,32.83691489361701,32.535638297872346
11600,11600.0,0.981132475,-15.01280975,-2.8480947625,1.161754625,0.18930817,0.9281730825,-47.9331975,39.19654835,-124.6575186,15.482954721178992,1.5083856464206746,139.18979609672954,32.766297872340424,32.51676595744681
11700,11700.0,-3.8270302,-4.795856475000001,4.895645175,0.17824935875000006,1.393054925,0.05385589749999997,-47.2766116,39.67201265,-127.18437150000001,7.951475395188902,1.422226384098796,141.36789587734003,32.69568085106382,32.497893617021276
11800,11800.0,6.713146275,-10.605685875,0.13117980949999994,0.5886459125,0.458290094,0.2618446325,-45.3491973,40.6185924,-129.7047405,12.558176993596053,0.8534841222777996,143.28206355490138,32.62506382978722,32.47902127659575
11900,11900.0,2.456562075,-9.527397500000001,0.65192031875,0.490104675,0.4721412625,0.050930023350000006,-45.3281396,40.2475739,-132.447129,9.876203249715019,0.6925224921057305,145.65971057287084,32.554446808510626,32.46014893617022
12000,12000.0,1.44530944,-9.090521,0.32134398880000004,0.363769536,0.6761871279999999,0.263562012,-44.55574015000001,40.12542705,-134.916231,9.223898859069877,0.8125774688223965,147.6403653725186,32.48382978723403,32.44127659574469
12100,12100.0,3.95060116,-9.1838928,1.18804322,0.222943112,0.5790344199999999,0.6687835679999999,-41.77116460000001,41.000366,-136.304091,10.070818837911405,0.9144634881576172,148.33980676991845,32.41321276595743,32.42240425531916
12200,12200.0,4.1885772,-9.9790068,0.7254852400000001,0.161584474,0.21300964600000002,0.24160767,-39.7335805,41.654281,-137.919769,10.85715869705791,0.3636567415177737,149.45147444027882,32.342595744680835,32.40353191489363
12300,12300.0,5.88941652,-12.9162078,0.1611694319999999,-0.551510608,-0.607662962,-0.23477173,-40.05500815,42.38388065,-137.6554095,14.219982351655693,0.8601125776314056,149.49959298298054,32.27197872340424,32.38465957446809
12400,12400.0,-3.61556086,-11.4167266,-1.41325076,-1.97128604,-0.93172606,-0.85326538,-44.47189325,42.7695461,-131.1196155,12.075021633731597,2.3481019857937406,144.91374734605134,32.20136170212764,32.36578723404257
12500,12500.0,3.2988953000000003,-9.874377,1.89673466,-1.2763091999999998,-0.471099854,-0.8332366720000001,-46.9381715,42.36801195,-124.7843945,10.5831762692055,1.6070094908565822,139.89131749818486,32.130744680851045,32.346914893617026
12600,12600.0,0.103353884,-6.80717162,-1.4786102,-0.134136964,-0.78279726,-0.87308046,-50.2923584,40.129090399999995,-120.381468,6.9687911795646205,1.1840427201034318,136.49701714953207,32.06012765957445,32.3280425531915
12700,12700.0,1.82754291,-6.647661,-1.766220095,0.652510836,-0.5139778105,0.14691314505,-51.330566999999995,39.7421258,-121.3305656,7.13131213770113,0.8481227165275896,137.6058680990612,31.989510638297855,32.30917021276597
12800,12800.0,4.78270186,-9.01486365,-3.261099235,0.468645473,0.0813407895,0.2752143875,-50.303955200000004,40.534056799999995,-122.016906,10.718328854139504,0.5501281072156443,138.06396829229936,31.91889361702125,32.29029787234044
12900,12900.0,1.80676956,-6.4716789000000015,-1.68487016,0.3154563905,0.15575637950000004,-0.2627937355,-50.5407716,40.5371094,-122.33001840000001,7.053254645262651,0.4993656759190338,138.42791146734072,31.848276595744657,32.271425531914915
13000,13000.0,5.88193421,-12.02891555,-3.983904955,0.01281738305000002,0.5775985684999998,0.439158635,-47.930298,41.860656,-125.372312,14.076220198009885,0.8510655601564299,140.5982436843683,31.77765957446806,32.252553191489376
13100,13100.0,1.901396904999999,-10.715756975,0.4003509555,0.6255615025,0.02643432700000004,0.7941688525,-46.7041012,41.966553600000005,-129.59076000000002,11.049855916614256,1.0419757673514225,144.00139726212774,31.707042553191467,32.233680851063845
13200,13200.0,-0.197894295,-9.36172655,-0.41846388,0.687767786,0.73579331,-0.10082244925,-45.1437376,42.0861822,-133.08533,9.4050252313557,1.0128423216497042,146.7010044716647,31.636425531914874,32.214808510638306
13300,13300.0,2.80401008,-8.490054099999998,1.62930299,0.19886779699999999,0.5758453299999999,0.232557681,-43.8659664,42.03063940000001,-135.06805200000002,9.088517244591674,0.6527549100359864,148.1022421135729,31.56580851063827,32.19593617021278
13400,13400.0,2.0440948000000003,-9.7194744,0.7776794199999999,0.356521607,0.374722293,0.502815249,-42.021178000000006,41.9149776,-137.034606,9.963426413952137,0.721365822463119,149.33642341946606,31.495191489361677,32.17706382978725
13500,13500.0,5.06964113,-9.5727034,1.6434280099999998,0.0262893673,0.131834416,0.487052918,-39.219971,42.84942720000001,-138.09753600000002,10.956793477745853,0.5053262268215815,149.81766627237366,31.42457446808508,32.15819148936172
13600,13600.0,5.9466383,-11.905016,-0.8234466560000002,-0.4384841965,0.164747615,-0.08308258030000001,-38.5186764,43.167114,-138.093876,13.34258382459918,0.4834497081817699,149.7231075119218,31.353957446808483,32.13931914893619
13700,13700.0,-0.6439910799999997,-12.3365813,0.7287124629999999,-2.12617644,-1.73727569,-1.49605405,-42.1755988,44.2568968,-130.99121200000002,12.444025744296772,3.1278552881039143,144.55744238293258,31.28334042553189,32.120446808510664
13800,13800.0,3.86607822,-9.293541000000001,0.77827453,-1.35971836,-0.486978149,-0.68058775,-45.216369799999995,43.9199834,-123.459471,10.101364007319104,1.5979544715016991,138.62145076834543,31.21272340425529,32.101574468085126
13900,13900.0,0.430877685,-7.30325015,-0.5165099890000001,-0.056578064300000015,-1.37913967,-0.976196293,-48.5617066,42.104797600000005,-119.68200800000001,7.340143375325528,1.691208883740028,135.84909426055438,31.142106382978692,32.082702127659594
14000,14000.0,1.48977430765,-7.45509267,-1.135763571,0.539328013,-0.3745925865,0.06482543930000001,-50.653382,41.703491,-120.374448,7.695840591584476,0.6640868903853968,137.09479727314434,31.07148936170209,32.063829787234056
14100,14100.0,3.584949525,-9.053771,-3.062805215,0.2982582085,-0.12462234725000003,0.3330619855,-49.492492,42.798157200000006,-121.008606,10.211005551248784,0.4645932385155994,137.56575931344776,31.000872340425488,32.04495744680853
14200,14200.0,4.34886642,-6.336588285,-3.951049785,0.14523086875000002,0.08390731899999998,-0.37928467200000004,-49.3917848,42.9464722,-120.3137204,8.641858867906759,0.4276066098914151,136.96524270872868,30.9302553191489,32.026085106383
14300,14300.0,4.176905014999999,-18.594475699999997,-10.276762625,0.540872935,-0.27317199549999993,1.138722245,-47.1234128,44.769898,-124.76165800000001,21.72143250455989,1.2961422604423976,140.67902857493445,30.8596382978723,32.00721276595747
14400,14400.0,-2.08979263,-6.9126952500000005,4.35815363,0.79483568,0.15324630299999975,0.702388,-45.93650452631579,44.64071178947368,-127.52926157894736,8.499527522755303,1.1169136538923388,142.7125485043349,30.7890212765957,31.988340425531934
14500,14500.0,-0.6013221775000002,-9.43922885,-1.39469989,0.70459978,1.2939926135,-0.370536042,-44.35447620000001,44.518662,-131.68113400000001,9.590556373523071,1.5239075500114203,145.90840711165444,30.718404255319108,31.96946808510641
14600,14600.0,2.92606128,-8.78591055,2.653602635,0.16072693,0.7452690125,0.38642730799999997,-43.11988865,44.7024544,-134.1467305,9.633935545111488,0.8555937619720819,147.82770254708015,30.64778723404251,31.950595744680875
14700,14700.0,2.297638,-9.406784,-0.016952515,0.2940979,0.6263274999999999,0.4567871,-41.1483756,44.73556525,-136.81449750000002,9.683336872662482,0.8291164977052803,149.70912814501884,30.577170212765914,31.931723404255344
14800,14800.0,3.6910705999999998,-9.054839999999999,1.3716888,0.19929504,0.15548706,0.51431274,-38.54972805,45.1009385,-137.22000400000002,9.873989050218244,0.5730727120726941,149.49772634054492,30.50655319148932,31.91285106382981
14900,14900.0,4.8857726999999995,-11.85965,-1.1242676,-0.22894287,0.20343018,0.14360046,-37.436295,45.03585815,-138.0261185,12.875793204108827,0.3382599118590332,149.93662624908856,30.435936170212717,31.893978723404285
15000,15000.0,2.5238953,-11.451447,1.3704834,-2.45961,-1.0759583000000001,-1.4031525,-40.3974915,45.5706788,-131.9117775,11.80609633320204,3.0292250747831764,145.29395748415612,30.365319148936123,31.87510638297875
15100,15100.0,4.8486633,-10.226807,0.07043457,-1.3986053,-0.59765625,-0.58610535,-44.1989896,44.010315999999996,-123.98735025,11.31821886343726,1.6299721652993882,138.7929574582873,30.29470212765953,31.85623404255322
15200,15200.0,0.17996216,-8.449112,0.43075562,-0.13519287,-1.5702361999999999,-1.1208649,-47.49259985,41.326294,-119.70382749999999,8.461999194737459,1.933974394851516,135.2508687673049,30.22408510638293,31.83736170212769
15300,15300.0,-1.160006714,-6.58379125,0.1869041435,0.48105239450000004,-0.3349098215,-0.1306465185,-49.674988,39.6548455,-118.8584875,6.698423683621082,0.6079150711204382,134.7867177270428,30.15346808510633,31.81848936170216
15400,15400.0,4.0195572,-8.45743545,-4.469812015,0.5628173750000001,-0.1902397138,0.275064853,-48.4740445,40.2082825,-119.178546,10.378992692865006,0.6551514841262883,134.79642638835313,30.082851063829736,31.799617021276628
15500,15500.0,7.02403093,-8.89377159,-5.729285415,-0.004646302000000002,-0.7035888899999999,-0.5983985930000001,-48.575516,39.95368955,-119.23362649999999,12.699793799239586,0.935468290906326,134.80619897186008,30.01223404255314,31.780744680851086
15600,15600.0,0.2781372059,-21.2646125,-5.972646900000001,0.936355593,-0.2358856205,1.51023021,-47.4282831,40.6719973,-122.7455125,22.17368486520916,1.800798437148106,137.73419245901684,29.941617021276546,31.76187234042556
15700,15700.0,-5.2950869,-4.44414752,4.27304005,0.6620964100000001,1.243180879,0.5300865180000001,-46.10089668421053,40.941579789473685,-126.05526578947368,8.201239461742384,1.5293767456097471,140.3265435952184,29.87099999999995,31.743000000000034
15800,15800.0,4.813234721000001,-9.65135455,-1.1704765499999998,1.1330031935,0.541647365,-0.254116055,-43.837814,41.35726939999999,-128.45154150000002,10.90795692794862,1.2840064057566856,141.8872949534722,29.80038297872335,31.7241276595745
15900,15900.0,1.6702453549999998,-9.12715435,1.025299835,0.30859604,0.604814932,0.2702148425,-44.05677765,40.70976285,-131.63566699999998,9.337736409372775,0.7317174066517831,144.6591513989651,29.72976595744675,31.705255319148968
16000,16000.0,1.647612035,-9.06333835,1.445185873,0.447876744,0.5305183520000001,0.4143981905,-42.5177758,40.7437129,-133.85932749999998,9.328543847582404,0.8090300330539958,146.24023016447845,29.65914893617016,31.68638297872344
16100,16100.0,3.6689269,-9.2030436,0.9722152715,0.06293563672000001,0.370079802,0.56523745,-40.2500154,41.3141632,-135.4084795,9.957532312625426,0.6788753902731046,147.18179783744378,29.58853191489356,31.667510638297905
16200,16200.0,3.389581275,-11.35219755,-0.33101195850000004,0.129098511,0.1859481765,-0.001004028435,-39.243317,41.69693,-136.52344,11.853040002237133,0.2361240421716909,148.04500201314454,29.51791489361696,31.64863829787237
16300,16300.0,2.90899662,-12.771245,-1.217291253,-1.726858495,-0.41853638,-1.234745785,-41.273498,41.7404165,-133.03452,13.158124978805606,2.165165486054898,145.41168311633967,29.447297872340364,31.629765957446843
16400,16400.0,1.58752444,-9.5812148,0.705254374,-1.815179495,0.025472258199999997,-0.428862763,-45.031738,41.065979,-125.0907895,9.7615864008169,1.8694175929244945,139.1478969506175,29.37668085106377,31.610893617021308
16500,16500.0,0.5301773285,-8.917601985,0.16033096300000002,-0.4724021875,-0.891664882,-1.04325102,-47.871399,38.9778135,-120.17288300000001,8.93574981932099,1.452087363286706,135.1023832571519,29.306063829787174,31.592021276595784
16600,16600.0,-0.4780105575,-6.15235066,-0.15132598825,0.497038273,-0.0815879815,-0.30956040560000003,-50.3936765,37.0941165,-119.25658999999999,6.17977683230404,0.5973998221584144,134.6763452088845,29.23544680851057,31.57314893617025
16700,16700.0,2.39597623,-7.61149655,-3.462396225,0.5729805029999999,-0.28292541075,0.2246261625,-49.7627265,37.23449650000001,-119.67773500000001,8.699431654049473,0.6798535938896226,134.85368416414528,29.164829787233977,31.55427659574472
16800,16800.0,7.202170665,-10.89466095,-4.882269315,0.13697966849999998,-0.766765603,-0.1804992665,-49.230194,37.518311,-120.178985,13.952444143611965,0.8043469720553535,135.18233867948058,29.09421276595738,31.535404255319186
16900,16900.0,-2.408642565,-15.63584275,-0.4356948835,1.07296526,0.33765182899999996,1.24685364,-48.9082335,37.9081725,-123.227693,15.945695576802715,1.6972982926188618,137.89329668151464,29.023595744680787,31.516531914893648
17000,17000.0,-3.36877136,-4.63604812,4.896905685,0.6813735814999999,1.6581443425,0.00379333535,-47.367858500000004,38.48114,-126.47705249999999,7.599456273470658,1.8136673185219017,140.431334751267,28.952978723404183,31.497659574468127
17100,17100.0,6.71686538,-10.434747,-0.0396957395,0.88063966,0.47697755,-0.0841461173,-45.5787655,39.190673499999995,-128.70026,12.46180282971918,1.017384733693043,142.0463008118396,28.88236170212759,31.478787234042592
17200,17200.0,1.62882082,-9.3577129,0.6349884100000001,0.495018003,0.5363251,0.09982299800000001,-45.739746000000004,38.2598875,-132.183075,9.519812122221612,0.7391034870767175,145.011911988204,28.81174468085099,31.459914893617057
17300,17300.0,1.70232395,-9.047178599999999,0.25933228,0.488302608,0.6710800140000001,0.360173032,-44.28711,38.44833300000001,-133.985135,9.212343245375443,0.90607066565227,146.25913366762967,28.7411276595744,31.441042553191533
17400,17400.0,3.47486569,-8.991631700000003,1.90498502,0.062828065,0.481037906,0.588139344,-41.85791,39.009094,-135.66589499999998,9.827938404804868,0.7630368674475625,147.23849200554753,28.670510638297802,31.422170212765998
17500,17500.0,2.81754768,-10.7024128,-0.234951783,0.286431886,0.298971558,0.241714481,-40.352631,38.959503000000005,-137.225345,11.07349739776596,0.4823721501841318,148.246349693097,28.5998936170212,31.40329787234047
17600,17600.0,6.28363338,-13.2014865,-1.37458191,-1.12557831,-0.600645444,-0.6732361,-40.297699,39.568328,-135.56595,14.68719525177374,1.4440986373140978,146.85966721786178,28.529276595744605,31.384425531914932
17700,17700.0,-2.61286015,-11.23392035,2.0183502580000003,-1.7058212,-0.179220577,-0.52857816,-44.70062299999999,39.138031,-128.805545,11.785107211507606,1.799009553568852,141.84834777613105,28.45865957446801,31.365553191489404
17800,17800.0,1.172688494736842,-9.110041421052632,0.7259987242105262,-0.9929608936842104,-0.4845179536842105,-0.8086226789473684,-47.016907,38.6596685,-124.57733,9.215565396810938,1.3703511139172928,138.6535388761564,28.388042553191408,31.346680851063876
17900,17900.0,-1.2644500525,-6.3443650400000005,-0.608682995,0.2042999255,-0.6552909855,-0.5571311985,-49.775696,36.868286,-122.3808275,6.503732094582036,0.8902284570042764,137.16413014490223,28.317425531914807,31.32780851063834
18000,18000.0,2.19462816,-7.353583545,-2.3627945,0.5013000464999999,-0.506201935,0.0652000427,-49.6749885,36.8637075,-121.7453,8.038410722241629,0.7215873678559224,136.55945900112886,28.246808510638214,31.308936170212807
18100,18100.0,6.3346222,-11.10841175,-5.99018236,0.31646651825,-0.4593238875,0.19377517405,-48.8581085,37.384033,-122.64396645,14.130642295311658,0.6042976771616041,137.20872867613315,28.17619148936162,31.290063829787282
18200,18200.0,-3.494709015,-8.313957175,1.43183137,0.945303335,0.7543731699999999,0.484494035,-49.088439,37.22389225,-124.642105,9.142161858021149,1.3113210238606872,139.03657156937297,28.10557446808502,31.271191489361748
18300,18300.0,3.978784165,-8.07956664,2.585839045,-0.0493362424,2.05591964,-0.2136260995,-46.53160025,38.4779367,-127.96157649999999,9.811446472874234,2.0703076345585263,141.49191887766088,28.034957446808427,31.252319148936216
18400,18400.0,7.161463621052631,-13.616610684210524,1.2565645105263157,0.7643810031578947,-0.6464313705263157,0.9477635,-44.928665,38.71665935,-131.62811299999998,15.479786777939196,1.3958458138503538,144.37362859242046,27.964340425531827,31.233446808510685
18500,18500.0,-0.18801574,-9.4031986,-0.6054474,0.567453008,0.24112854,-0.0641235334,-44.9163055,37.8630828,-134.6621705,9.479494326181364,0.6252451444812506,146.91851442515673,27.893723404255233,31.214574468085157
18600,18600.0,2.64144588,-8.413681200000001,1.39418644,0.35354309,0.5911804119999999,0.229678346,-43.37226855,37.84820525,-137.78732549999998,8.928241672133336,0.7279260762964423,149.32855197612622,27.82310638297864,31.195702127659626
18700,18700.0,2.71470946,-9.2557186,0.244732666,0.1530639614,0.489974972,0.599108888,-41.2247455,37.94837945,-139.5922845,9.658767751738841,0.7910578962968072,150.41813644116297,27.752489361702036,31.17682978723409
18800,18800.0,2.7295531800000004,-9.793939,1.3824584999999998,0.416601556,-0.02305297879999999,0.297644042,-39.19593765,38.4918214,-141.117322,10.308760370653495,0.5224188291810721,151.43342521838645,27.681872340425443,31.157957446808556
18900,18900.0,5.90450134,-12.2941986,0.08168335000000003,-0.597741696,0.2973754852,0.056896972,-37.73941135000001,39.13513185,-141.853409,13.641596549968098,0.6994719397352616,151.91539966349453,27.61125531914885,31.139085106383032
19000,19000.0,-1.3756676275,-11.25840775,-1.0186348,-2.25160975,-1.370506325,-1.341377275,-41.5499876,41.57981925,-136.946412,11.498246458462381,2.9589149047365444,149.03087814474085,27.54063829787225,31.120212765957493
19100,19100.0,3.6740112000000003,-10.442882875,1.305839525,-1.449470525,-0.3782158,-0.73176957,-44.42276010000001,43.30566475,-130.4310605,11.14775064633812,1.6734166427430908,144.4344001706805,27.47002127659565,31.10134042553197
19200,19200.0,0.3239173875,-6.86234665,-0.3045578,-0.145317075,-1.160118075,-0.979454045,-48.9139557,42.7424623,-127.42881799999999,6.883341574970231,1.5261835012903875,143.03155887765203,27.39940425531905,31.082468085106434
19300,19300.0,0.6962242125,-6.991641975,-0.9641647275,0.470397945,-0.4434585575,0.06318283,-51.40663175,41.8275452,-127.044981,7.1339227887437975,0.6530556788207358,143.29219989932912,27.328787234042462,31.063595744680907
19400,19400.0,3.84513855,-8.534106699999999,-3.84791867,0.573307782,-0.122969057,0.0529525756,-51.16431847619048,42.30194080952381,-128.20812333333333,10.124088891874532,0.5916365839068398,144.3764704029667,27.25817021276586,31.04472340425537
19500,19500.0,5.32534942,-7.06334229,-4.31515042,0.1007583609138,-0.37309876,-0.331716929,-51.9889825,42.3027035,-127.70080800000001,9.856118841463864,0.6890818948000605,144.2222369975404,27.18755319148927,31.02585106382984
19600,19600.0,4.31858521,-17.3104047,-8.58233478,0.36941986088,-0.7494552619999999,0.977604678,-50.092087,43.2717132,-132.18940700000002,19.936209796967088,1.3013479266535195,147.83704688644883,27.116936170212675,31.00697872340431
19700,19700.0,-3.348362705,-7.15144955,2.11843565,0.566494748,0.50723419,0.5730087220000001,-49.010576190476186,43.416631428571435,-136.5457438095238,8.561356196709793,1.0624568385610256,151.4331357746149,27.04631914893607,30.988106382978774
19800,19800.0,0.7602699100000001,-8.494893800000002,-0.016358948499999998,0.77538988,0.8949989345,-0.3908866885,-47.67364515,42.9650865,-139.03366100000002,8.676626973578971,1.2491127382931844,153.13138416476914,26.975702127659478,30.96923404255325
19900,19900.0,3.01362376,-9.3389162,1.7668380899999998,0.350352479,0.385420229,0.258549498,-47.06733679999999,42.3650355,-141.143724,9.98109326709531,0.5837211603052626,154.69921013921783,26.90508510638288,30.950361702127715
20000,20000.0,1.692630775,-8.97278185,0.24801712039999999,0.39487687200000005,0.6491340635,0.4386886705,-45.32348625,42.01148965,-143.9231875,9.140809074297369,0.8816765888212333,156.6304999733647,26.834468085106284,30.931489361702184
20100,20100.0,3.48833619,-8.9579352,1.585543805,0.13207321425000002,0.31096039600000003,0.61375886,-42.69966095,42.79296865,-145.20805700000003,9.756224858376257,0.7017135418002236,157.2892453951474,26.763851063829684,30.91261702127665
20200,20200.0,3.02781059,-11.27210725,-0.10303115449999996,0.20866699100000002,0.437086494,0.103448484,-41.344757,42.45201135,-146.1585225,11.684867350468654,0.5015842589523577,157.71472710029136,26.69323404255309,30.89374468085112
20300,20300.0,4.627318,-13.36104855,-1.774662095,-1.348583245,-0.6282806599999999,-0.663435365,-42.42874185,43.2892614,-144.3827795,14.256058519422036,1.6293492915069707,156.59217043199618,26.62261702127649,30.87487234042559
20400,20400.0,-1.08285067,-10.58754975,0.3952095035,-1.66022945,0.05764465299999999,-0.5326278504999999,-48.010025899999995,44.3061065,-135.60982199999998,10.720031276035789,1.7516954592253258,150.52643812088118,26.55199999999989,30.85600000000006
20500,20500.0,0.9015838740000001,-8.363042049999999,0.6379738,-0.6882888995,-0.31365814350000004,-0.915216845,-51.16104065,43.7230685,-129.9192065,8.438639759595924,1.1997319126131971,146.3162919261172,26.481382978723296,30.837127659574534
20600,20600.0,0.475656893195,-6.58156731,-0.27330932350000003,0.2365798945,-0.5088073755,-0.5169136045,-54.43077015,41.5509032,-126.77245970000001,6.617432593982378,0.7722784669204241,144.08506300264474,26.4107659574467,30.818255319149
20700,20700.0,2.5918161684210532,-7.750445631578947,-3.7897138842105274,0.5631641431578948,-0.6592214463157895,0.20461152789473688,-55.03501915,41.0785679,-126.2651067,9.009948994175634,0.9044084777506196,143.73303369681997,26.340148936170106,30.799382978723465
20800,20800.0,6.50928356,-12.2635588,-5.4302459800000005,0.113220214,-0.47259521600000004,-0.1365600572,-54.6633908,40.467834,-126.8598925,14.909340024495359,0.5459291895731596,143.9415377066489,26.269531914893502,30.78051063829793
20900,20900.0,-3.39074402,-10.545715199999998,2.6293610000000003,1.15334472,0.664901738,0.78553468,-54.84474563157895,39.74786057894737,-128.21526789473685,11.624542972640988,1.5716874042999092,145.00814673900214,26.19891489361691,30.761638297872402
21000,21000.0,-0.3745300599999999,-6.1815642,4.50521552,0.378686524,1.93511652,-0.026623535,-52.6229856,40.5310064,-131.038204,8.120158140532826,1.9744336132157607,146.91254487595887,26.12829787234031,30.74276595744687
21100,21100.0,8.029123,-12.7057648,1.249337744,0.7225524720000001,-0.070983888,0.417599486,-50.843812,40.8166506,-133.872682,15.103384921965134,0.8929005275035443,148.90636079061204,26.057680851063715,30.723893617021343
21200,21200.0,0.2857940500000001,-9.007678599999998,0.889010616,0.379104612,0.340844728,-0.022579956,-50.987854,39.107056,-136.86095999999998,9.082700320706877,0.5196512111867659,151.19539330964898,25.98706382978712,30.705021276595808
21300,21300.0,2.59044496,-8.4481508,1.23521422,0.44068604,0.551553332,0.309365844,-49.4537356,38.8595584,-138.65570400000001,8.926402073559256,0.7710618543159612,152.25376374176818,25.916446808510518,30.686148936170284
21400,21400.0,2.6986725,-9.5025604,0.78151244,0.19566955600000002,0.5300354,0.659201064,-46.9662476,39.00482279999999,-140.646974,9.913567725753207,0.8703397067179117,153.3260507795792,25.845829787233924,30.66727659574475
21500,21500.0,3.5014434800000003,-9.7484436,1.57447514,0.216125492,0.108398439,0.19473572,-44.839783000000004,39.42840579999999,-140.816652,10.491423831759377,0.32284675660420514,152.95275529892606,25.775212765957328,30.64840425531921
21600,21600.0,4.583388625,-12.71061475,0.7957534959999999,-0.3981025715,-0.026299281499999997,0.049496459500000006,-43.677903,38.8855755,-140.4486115,13.561918984491054,0.4592545140862964,152.1369799722331,25.704595744680727,30.629531914893683
21700,21700.0,-0.7853134350000002,-10.0784874,-1.19915237,-2.137519075,-1.10610351,-1.0923095500000002,-46.35932905,39.37629735,-134.23843449999998,10.241179307190556,2.6442882856005854,147.37793337568525,25.63397872340413,30.61065957446815
21800,21800.0,2.4461418,-11.3645288,0.4149650445,-1.490592185,-0.395463556,-0.90322571,-48.7037655,39.3291477,-126.87858565,11.650931589275125,1.789050698931694,141.48215875378582,25.563361702127533,30.59178723404262
21900,21900.0,0.2276794446,-7.43635945,-0.586653888,-0.250358586,-0.6357971215,-0.938012675,-51.136244,37.056656200000006,-122.69454750000001,7.4664248935575825,1.1646060941794756,137.99344546642888,25.49274468085094,30.572914893617092
22000,22000.0,-0.05005416900000004,-6.423255935,0.13465499649999996,0.7065170414999999,-0.6123550415,-0.1683021625,-52.27584775,35.729598700000004,-121.88850249999999,6.443100301361711,0.956308626414728,137.35419853993065,25.422127659574343,30.554042553191557
22100,22100.0,3.9341415,-9.34950485,-4.96619348,0.576506815,-0.0579399115,0.2736259455,-51.43608085,35.97816555,-122.533342,11.295958719532138,0.6490015507827879,137.67578322166722,25.351510638297743,30.535170212766023
22200,22200.0,4.571716285,-5.462824315,-2.0896103155000003,-0.04763107700000002,0.3261390705,-0.459127044,-51.4907075,35.07469175,-122.67860385,7.605801427496894,0.646489965506558,137.5925100545293,25.28089361702115,30.516297872340488
22300,22300.0,5.29158775,-16.0393295,-9.8068467,0.41767119,-0.822425865,0.973976125,-49.3773657,36.60041825,-125.6005865,19.71406455285729,1.3437101402118004,139.8333872563225,25.210276595744553,30.497425531914963
22400,22400.0,-2.30341343,-7.69134535,1.6087036,0.5545578,-0.019210820000000017,0.658660885,-48.486098600000005,37.14775085,-128.765408,8.828632626067915,0.9340619156393288,142.51842902268302,25.13965957446796,30.47855319148943
22500,22500.0,-0.23781584999999994,-8.7256395,0.4576950100000001,0.762817385,0.5933075,-0.26705169500000003,-47.35580435,37.098769399999995,-130.9270475,8.80264410331493,1.002821850264568,144.08623113713216,25.069042553191363,30.4596808510639
22600,22600.0,1.8900298999999998,-9.0093535,0.78988645,0.323394775,0.64391325,0.0770263675,-47.0044714,36.1289215,-132.67013300000002,9.252821011055609,0.7267867002438949,145.314116281478,24.998425531914762,30.44080851063837
22700,22700.0,1.79785155,-9.298454,-0.2084884625,0.41873169,0.4622802700000001,0.5089950599999999,-45.3317256,36.5656279,-135.17059250000003,9.473410747860061,0.8082342513613122,147.18437858272603,24.927808510638165,30.42193617021284
22800,22800.0,4.0813217,-9.4480895,2.0725860000000003,0.13111114499999998,0.21194458,0.5547943000000001,-43.1951135,37.0662687,-136.75377350000002,10.502769970438141,0.608991118022052,148.12616711158432,24.857191489361572,30.403063829787307
22900,22900.0,3.228981,-12.051788499999999,-1.13864135,0.227523805,0.401557925,0.194206235,-41.859435999999995,37.124634,-137.85553000000002,12.532757227527375,0.5393658934863299,148.77700757661762,24.786574468084968,30.38419148936177
23000,23000.0,3.782525655,-12.1047037,-1.0377792175,-1.5211135850000002,-0.6997612049999999,-0.8591278149999999,-41.70494045,37.806624600000006,-135.88210800000002,12.746618171782453,1.8824535779870075,147.08193083362926,24.71595744680837,30.365319148936248
23100,23100.0,-0.8128525160000002,-11.68254245,0.805155195,-1.72947465,0.2108322142,-0.5678886525,-44.58427405,38.6127472,-128.884054,11.8042648771262,1.8350278611244395,141.73862733178777,24.645340425531774,30.346446808510713
23200,23200.0,0.5632797360000001,-8.077588015,-0.0519111612,-0.6850913984999999,-0.21709137,-0.8530013879999999,-46.239166,38.42437775,-124.69985790000001,8.104681768567541,1.12069124855906,138.43714608815586,24.57472340425518,30.327574468085178
23300,23300.0,0.18391875950000006,-6.51566851,0.04391860650000001,0.292930602,-0.14407196,-0.3894004835,-48.08845595,37.3488615,-123.10424850000001,6.5289907132523135,0.5247825428824893,137.33933789686552,24.504106382978588,30.30870212765965
23400,23400.0,3.71949919,-8.062990525,-4.07841654,0.540018468,-0.6154426595,0.01923065084999999,-47.98545835,37.446135999999996,-122.846221,9.77783567562615,0.8474518800466211,137.09869637056198,24.43348936170199,30.28982978723412
23500,23500.0,5.34378047,-12.3195793,-4.68738697,0.10315475650000004,-0.7628761049999999,0.1491470345,-47.35565,37.735628368421054,-125.15491673684211,14.245735122996097,0.8366272574321696,139.0334232863068,24.36287234042539,30.27095744680859
23600,23600.0,-3.85593868,-12.288931,1.002261336,1.01954652,1.13531802,0.9137908640000001,-46.7799374,38.0146791,-126.62734920000001,13.05126155474165,1.820612650462828,140.24447495776295,24.292255319148797,30.252085106383056
23700,23700.0,-0.35513306,-6.61969602,3.48911438,0.44260254,2.11535642,-0.12952881,-44.7167971,39.4363412,-129.688873,7.813042513467786,2.1666370806724466,142.73819783650302,24.2216382978722,30.23321276595752
23800,23800.0,6.74918516,-10.749456599999998,1.49714356,0.6908020100000001,-0.21479796800000006,0.233514404,-43.276367,39.7216798,-131.907197,12.783763523455416,0.8541873126594435,144.3961187983416,24.151021276595603,30.214340425531997
23900,23900.0,1.57602536,-9.243984800000002,0.460922252,0.47007751200000003,0.128643798,0.158309934,-42.9153448,39.22668450000001,-134.220274,9.396236910412721,0.518090946899103,146.2723043580535,24.080404255319003,30.195468085106462
24000,24000.0,2.06396796,-8.868814200000003,0.724288956,0.40105286,0.62292174,0.307867432,-41.5588381,39.359130799999996,-135.858156,9.135982528047457,0.8035095185842756,147.42372222094187,24.00978723404241,30.176595744680927
24100,24100.0,3.00368648,-9.4189974,0.416159056,0.188427736,0.25668945,0.54372254,-39.219207399999995,39.6478276,-138.024599,9.895613467153776,0.6309162872062724,148.86582776088414,23.93917021276581,30.1577234042554
24200,24200.0,1.736918615,-10.75921745,0.2319793715000001,0.4809555045,0.11740417795,0.3372718845,-37.2445676,40.5099486,-138.486785,10.924637989794507,0.611521557098678,149.01959202802593,23.86855319148921,30.138851063829872
24300,24300.0,5.65610655,-12.601018375,-0.2815704349,-0.7009078990000001,0.18436050555,-0.03946151610000001,-35.6713864,40.9240731,-137.95318600000002,13.81698045462021,0.7642681492141803,148.25112659749732,23.797936170212612,30.119978723404337
24400,24400.0,-2.7593949560000004,-11.827925925,-0.9201102972499998,-2.39100646,-1.26366044,-1.223504635,-39.1850283,42.5515746,-130.724028,12.316662650792756,2.9712443734181253,142.95261174284198,23.72731914893602,30.101106382978806
24500,24500.0,3.139801815,-9.713728199999998,0.8578262375000001,-1.522071075,-0.16782150350000002,-0.7955863934999999,-41.5661622,43.204345200000006,-123.027804,10.245079225176433,1.7423154510577783,136.8588395662163,23.656702127659425,30.08223404255327
24600,24600.0,0.3026679965,-7.14984065,-0.6728477654,-0.05498809945,-1.20235218,-1.0420844945,-45.0260925,41.4447015,-118.6087032,7.203241311705028,1.5970109749501875,133.46720827616682,23.58608510638282,30.063361702127747
24700,24700.0,-0.13672256950000006,-6.25423199,-0.22458877449999992,0.83290861,-0.321751399,-0.06592559954,-46.79519670000001,40.8616639,-119.4195558,6.2850424625624965,0.9003019094088529,134.61242454195084,23.515468085106228,30.04448936170221
24800,24800.0,5.632288355,-11.17221905,-5.96929335,0.6373283205,-0.1959991455,0.32219543149999996,-45.3651425,41.469116,-121.5496818,13.878193330190728,0.7416342553811371,136.20588623864745,23.444851063829628,30.02561702127668
24900,24900.0,2.07018898,-3.79945067,-1.110266126,0.06667022900000003,0.4726165772,-0.469772336,-46.4639281,41.1515806,-121.0630805,4.634516569871309,0.7583404246194888,136.0467089999263,23.374234042553034,30.00674468085115
25000,25000.0,6.58972771,-15.415043300000002,-8.320289500000001,0.15625762909999996,-0.313122558,0.66803588,-43.647613,42.4821472,-123.93753000000001,18.83050684174244,0.7759205508570164,138.0957638130683,23.30361702127644,29.987872340425614
25100,25100.0,-1.72462304,-8.011335899999999,1.66700436,0.480519122,-0.430836483,0.824205022,-43.4550472,42.416076399999994,-126.27014299999999,8.732182991342983,1.1037871894118152,140.11322490279923,23.232999999999837,29.96900000000009
25200,25200.0,-0.5623520099999997,-8.6126374,-0.4377410820000001,0.84537966,0.66787568,-0.53113251,-42.5349424,42.8099071,-128.84170600000002,8.798536318993984,1.2080391278656994,142.27534584338656,23.162382978723244,29.950127659574555
25300,25300.0,2.73506165,-9.36561295,1.29039458,0.23657532,0.501057419,0.251518248,-42.3877715,42.7074425,-130.51071000000002,9.845230305554123,0.6091115788622805,143.71394516444917,23.091765957446647,29.931255319149024
25400,25400.0,1.30189511,-9.2351285,-0.3516601429999999,0.41298523200000004,0.40283966,0.55597227,-40.8874505,42.8722385,-132.51380749999998,9.340310539685992,0.8038130972002014,145.15444363953074,23.02114893617005,29.91238297872349
25500,25500.0,4.180994052631578,-9.537521473684214,2.127116947368421,0.08301343631578947,0.051655016105263164,0.5200315715789473,-38.2587435,43.47648625,-133.40416249999998,10.62975227343587,0.5334704472700059,145.43259391257791,22.95053191489345,29.893510638297965
25600,25600.0,3.0299721,-11.31198125,-0.99139785,-0.038524627499999985,0.6377868725,0.12896346749999998,-37.2863765,43.66226225,-133.8359825,11.760121456456316,0.6637633783655035,145.6323058595317,22.879914893616856,29.87463829787243
25700,25700.0,5.69322225,-12.890353999999999,-2.153781925,-1.3099174375,-0.72549055,-0.696884175,-37.57133475000001,44.48318625,-131.57425,14.271640390513802,1.6541519506680564,143.8833075228055,22.80929787234026,29.8557659574469
25800,25800.0,-1.621368375,-10.10828825,0.5034828125,-1.70246885,0.140571595,-0.5594635025,-41.37191775,44.297409,-122.08519,10.284650035100167,1.8091514927878316,136.30393031205404,22.738680851063666,29.83689361702137
25900,25900.0,1.220252995,-8.60443475,0.7458953925,-0.30058671000000003,-0.15237426575000002,-1.0185928574999998,-43.951035499999996,42.99201975,-117.71202050000001,8.736114139507103,1.080693918598947,132.80172225859496,22.66806382978707,29.81802127659584
26000,26000.0,-0.6475258092499999,-6.3712387,-1.25086595,0.373195645,-0.6408004775,-0.33948898,-45.858002500000005,41.83235175,-115.27557250000001,6.535744987489159,0.8256737877838184,130.92503024722393,22.59744680851047,29.799148936170305
26100,26100.0,3.411544875,-8.376388799999999,-3.58341215,0.552696225,-0.13612747125000002,0.24613953,-45.037842,42.30537375,-116.3478875,9.734576398911381,0.6220385809444112,131.73835336069635,22.526829787233872,29.780276595744766
26200,26200.0,6.31415388,-11.6108978,-4.82498478,-0.023135375600000004,-0.5100891120000001,-0.324047856,-45.11756925,42.64183025,-117.1504965,14.093197318587384,0.6054777087221529,132.5828115722673,22.456212765957275,29.76140425531924
26300,26300.0,-3.03472592,-11.438986,0.5064147768,1.14631652,0.1352508556,1.13962706,-44.78912375,43.757629,-118.3418275,11.94558915609147,1.640454289273384,133.88755756695988,22.385595744680682,29.742531914893714
26400,26400.0,-0.8864135800000006,-5.41206656,4.8878112599999985,0.21527099600000002,2.1969573600000003,-0.344717406,-43.171309,44.49119575,-120.59975,7.907734903887143,2.234442790688855,135.60074744334887,22.314978723404078,29.72365957446818
26500,26500.0,7.9345492800000015,-12.7488584,1.83448178,0.8009491,-0.558026124,0.4623352,-41.4745325,45.480728000000006,-121.6308575,15.142600442248751,1.1140902433829112,136.31894498210792,22.244361702127485,29.704787234042648
26600,26600.0,1.007888794,-8.917654599999997,0.674014294,0.354614256,0.33168640400000005,0.07052612400000001,-42.24891575,44.956207,-125.14343249999999,9.032253555737032,0.49747452560491495,139.52387127806554,22.173744680850888,29.68591489361712
26700,26700.0,1.56453556,-9.0079162,0.8545318519999999,0.432583626,0.6071594,0.22328491399999997,-41.4321905,45.385742,-127.01225249999999,9.188710004170298,0.7782731996992378,141.09804627874738,22.10312765957429,29.667042553191585
26800,26800.0,2.67281184,-9.2765412,1.19858398,0.08233032000000001,0.438638304,0.50089416,-39.66674825000001,46.54350225,-128.80706999999998,9.728706877420057,0.6716168682389567,142.58716226300803,22.03251063829769,29.64817021276605
26900,26900.0,2.0805271105263157,-9.728307578947367,0.9298930947368421,0.29533627368421056,0.3014895684210526,0.2728327757894737,-37.54806525,46.67510975,-129.51126000000002,9.995528729737346,0.5038045143961362,142.69413894293214,21.961893617021094,29.629297872340523
27000,27000.0,4.1881058000000015,-11.1740671,0.380009461,-0.0952537542,0.6440208439999999,0.223818966,-36.41014075,46.9356525,-130.8673875,11.94291459070671,0.6895410492810583,143.71834373956182,21.8912765957445,29.610425531914988
27100,27100.0,3.134771755,-10.77358265,-1.918490605,-1.59669342,-0.74381181,-0.9370010559999999,-38.1445316,47.2058112,-126.58691599999999,11.38385276517231,1.9952466389499015,140.38516684631952,21.820659574467907,29.591553191489464
27200,27200.0,1.43662418,-10.904665325,0.9350975025,-1.829930915,-0.16569671399999994,-0.5248970095000001,-41.82861320000001,45.6890872,-116.776732,11.077914772475886,1.9142923632826248,132.1895572832209,21.75004255319131,29.57268085106393
27300,27300.0,0.8022781400000001,-8.31480205,0.13058929425000002,-0.5863945150000001,-0.53182068,-0.820677185,-44.4595334,43.332518,-111.6036992,8.358003754829276,1.1451080200133863,127.7100513776896,21.67942553191471,29.553808510638397
27400,27400.0,0.17015381100000002,-6.76011658,-0.17825927774999997,0.5692619335,-0.377044676,-0.35323638900000004,-46.3015748,42.145995,-110.40527479999999,6.767226936038746,0.7754877123498406,126.92299539550707,21.608808510638113,29.534936170212866
27500,27500.0,3.86309666,-9.4938263,-4.9555998,0.473278805,-0.90614928,0.012899780199999987,-45.99890421052633,42.71457210526316,-111.13241052631581,11.390869820092515,1.0232322107000886,127.63562729735008,21.53819148936152,29.516063829787324
27600,27600.0,4.282194400000001,-10.609520300000002,-2.61286466,0.0611297608,-0.6028732419999999,0.119218445,-46.679689,42.719421399999995,-111.171877,11.740398490442727,0.6215185533757424,127.91847802058935,21.467574468084923,29.497191489361807
27700,27700.0,-2.4570007119999997,-12.750534,1.026197798,0.968411254,0.960508736,0.714907836,-46.9873034,43.279113200000005,-113.057556,13.036823581436494,1.5458599336316168,129.8574585939037,21.396957446808322,29.478319148936272
27800,27800.0,-2.5034484800000003,-4.305111699999999,5.41094357,0.25937042200000004,2.21092077,-0.1341064443,-46.7953492,44.538574,-115.516052,7.510734444738432,2.231233395618733,132.35367068123006,21.326340425531725,29.459446808510737
27900,27900.0,8.2897231,-10.9035292,0.334751888,0.8314147959999999,-0.38801116,0.36560821200000004,-44.821777600000004,45.9170532,-117.42523,13.722910011207285,1.0025406623647115,133.81378039180052,21.25572340425513,29.440574468085213
28000,28000.0,1.8165214755,-9.368125175,0.6566604625,0.40259782200000005,0.424949646,-0.01384429913,-46.1685174,45.5056766,-121.04370120000002,9.592801479216098,0.5891849431022541,137.3094459691764,21.18510638297853,29.421702127659678
28100,28100.0,2.062654955,-8.7963296,1.177153785,0.346359252,0.469690709,0.1768417385,-46.1251824,45.79895000000001,-123.1887828,9.111460151620133,0.6101722390309645,139.2858784181113,21.114489361701935,29.40282978723415
28200,28200.0,2.973705255,-9.50406225,0.6744308434999999,0.15614700399999998,0.259505465,0.57099456,-44.792482,46.65100080000001,-124.93896399999998,9.981762218568347,0.6470464092516538,140.68590881786182,21.043872340425338,29.383957446808616
28300,28300.0,2.28920201,-9.59521095,0.7994713000000001,0.31433486899999996,0.24448470650000004,0.329286956,-43.43567,47.160646,-126.2985232,9.899329632984832,0.5218343276075054,141.6410696716464,20.973255319148738,29.365085106383084
28400,28400.0,5.82142185,-11.2725966,0.8034149309999999,-0.58867799,0.246774295,0.07426300200000001,-43.1286616,47.6330572,-126.60553200000001,12.719458657845594,0.6574689344391647,141.97875449999438,20.902638297872144,29.346212765957556
28500,28500.0,-1.0867447150000002,-11.8871821,-1.224893205,-1.92708058,-1.17395858,-1.193517295,-46.94946160000001,46.0198972,-120.4251108,12.039374436905815,2.5537440103490923,137.20304978255692,20.832021276595547,29.32734042553202
28600,28600.0,3.5919403400000003,-11.36333,0.2959655800000001,-1.5294159,-0.11189880519999999,-0.5594726320000001,-49.62280360000001,43.2546998,-112.785642,11.946139323632805,1.6348957798775536,130.5912346184544,20.76140425531895,29.308468085106487
28700,28700.0,0.485943604,-7.898925599999999,0.354147334,-0.27389831200000003,-1.09726258,-1.00858154,-52.2149656,39.655152,-109.053344,7.923735972602102,1.5177134689559812,127.24636783823513,20.690787234042357,29.289595744680962
28800,28800.0,0.6975921660000002,-7.00636288,-1.3991333199999998,0.43961792,-0.544180286,-0.19237976,-53.7039184,38.2391368,-107.92327920000001,7.191667154456983,0.731164132853779,126.46654507630609,20.620170212765764,29.270723404255428
28900,28900.0,1.7468521000000001,-7.685424799999999,-3.38661725,0.57139666,0.00890045155000002,0.1980369535,-53.338301789473675,38.85176831578947,-108.92631136842104,8.578331284566548,0.6117101321316764,127.3553593379764,20.54955319148916,29.251851063829893
29000,29000.0,7.19198754,-10.1613178,-5.0390334700000015,-0.1068634062,-1.008313,-0.4246002208,-52.92030329999999,39.24171455,-108.847577,13.436575182336966,1.1063005482181314,127.23327292708599,20.478936170212567,29.232978723404365
29100,29100.0,-0.8026153550000004,-16.382655800000002,-4.00592962,0.90098877,-0.5666610729999999,1.2182449199999998,-52.993469999999995,40.21377575,-112.02507240000001,17.02191294947093,1.6498678647018876,130.28900436360564,20.40831914893597,29.214106382978834
29200,29200.0,-4.96816085,-7.4351700150000015,2.32002636,0.34529266350000004,1.487273445,0.19074172850000004,-53.14708871428571,40.82743347619048,-116.40363238095242,9.256947627988731,1.541021774184138,134.3182618597483,20.33770212765937,29.195234042553306
29300,29300.0,3.9106163,-9.73473115,0.8686027540000001,0.67099609,0.7902839665000001,0.04773864735,-51.5490724,42.478943,-118.930054,10.538668436553596,1.0579939028684555,136.4047209261597,20.267085106382773,29.17636170212777
29400,29400.0,3.5929108,-9.698883,0.41519165,0.52952576,0.26521300000000003,0.14147949,-51.7651352,42.2705076,-122.874452,10.351315064796133,0.608894007166467,139.87346304059577,20.196468085106176,29.157489361702236
29500,29500.0,1.8918304,-9.302643,0.41041565,0.43365479999999995,0.5688019,0.26504517,-51.413574,41.98150680000001,-126.5142828,9.501927701975957,0.7627850477998234,142.8695359973296,20.125851063829575,29.138617021276712
29600,29600.0,3.0984955000000003,-9.897598,0.9395294,0.14176941,0.25242615,0.51963806,-49.536438000000004,43.1701664,-128.22448599999998,10.413733049516326,0.5948455599700937,144.08005042495316,20.055234042552982,29.119744680851174
29700,29700.0,2.2006683,-9.782684,0.210495,0.30369568,0.1980896,0.18621826,-48.2202152,43.548584000000005,-129.804384,10.02936465363115,0.407612310947854,145.15814727003638,19.984617021276385,29.10087234042565
29800,29800.0,5.6712503000000005,-12.95996215,-0.21154022175,-0.5285529975000001,-0.02710037255,-0.032112122,-47.344362,43.111876,-130.87311200000002,14.157343334879933,0.5339251558528125,145.69806221530717,19.913999999999792,29.082000000000114
29900,29900.0,-2.9078948650000003,-11.873355075,-0.86869125073,-2.216838035,-1.25087206,-1.240923352,-50.4797364,41.4166262,-124.392702,12.258425875939047,2.8356566979221545,140.48972872580657,19.84338297872319,29.063127659574587
30000,30000.0,2.9122314950000003,-10.9807938,0.6950851404999999,-1.35829014,-0.5784790065,-0.8029396169999999,-52.21435500000001,39.86785920000001,-118.594968,11.38281411886264,1.681491706893116,135.57554217039728,19.772765957446595,29.044255319149052
30100,30100.0,-0.036587524650000015,-6.9316057299999985,-0.315151988,-0.0113037115,-0.900084707,-0.956858062,-54.844359999999995,37.6022336,-116.5509032,6.9404225244163085,1.3138862041436603,134.1863000578164,19.70214893617,29.02538297872352
30200,30200.0,0.11011734050000001,-6.71193385,-0.72426375,0.597056567,-0.44920502,0.005708313035000001,-56.007996,36.018067200000004,-116.7984,6.758527909489253,0.7488873047187478,134.4473002211167,19.631531914893397,29.006510638297986
30300,30300.0,4.5747002000000005,-9.4275621,-3.95895392,0.512322245,0.0666450497,0.227492527,-55.13374350000001,37.03483585,-117.4467471,11.203620606574429,0.5674505319546537,134.92613870467778,19.560914893616804,28.987638297872454
30400,30400.0,4.452484745,-6.5442865150000005,-4.072377026,-0.0844894395,-0.38443985399999997,-0.44772186799999997,-54.96025025,37.1464537,-118.49792250000002,8.947202939983177,0.6269802459497659,135.80246025108198,19.490297872340207,28.968765957446927
30500,30500.0,3.717936735,-16.60124755,-7.9245895499999985,0.400416579,-0.6772338990000001,1.019094855,-53.8052375,38.6770629,-121.470949,18.780759963206105,1.3046374504203488,138.36975837993515,19.41968085106361,28.949893617021395
30600,30600.0,-3.7495518542105257,-7.611960921052631,1.8987202263157892,0.491007752631579,0.4221914184210526,0.6042528736842105,-52.41539005,39.6531679,-126.5186335,8.770977639247251,0.8984802948778261,142.5719258418476,19.34906382978701,28.931021276595864
30700,30700.0,1.44375154,-8.963148449999998,0.24245605399999998,0.8861785870000001,0.468040469,-0.11589813,-51.18637105,40.30784745,-128.61236,9.112675394499872,1.0089159858210788,144.17355167929986,19.278446808510413,28.91214893617033
30800,30800.0,1.79329989,-9.4847261,0.442015071,0.361528027,0.458657834,0.0129043581,-50.9646599,40.070420500000004,-130.98984199999998,9.667788351820594,0.5848751406750305,146.15544805497453,19.20782978723382,28.8932765957448
30900,30900.0,1.75451051,-9.2092693,0.012013244640000002,0.393486021,0.57264101,0.27420654699999997,-50.079426842105256,39.63060726315789,-134.35781526315787,9.374971302447593,0.7480263638899943,148.7635665789444,19.137212765957226,28.87440425531927
31000,31000.0,3.2349656,-9.204122900000002,1.21378177,0.1312210114,0.32902374500000003,0.538400264,-47.67227000000001,40.278777500000004,-136.604768,9.83324452709419,0.6445966539836177,150.1862462729321,19.066595744680622,28.85553191489374
31100,31100.0,2.6857414,-10.081479,0.155662536,0.34577026549999995,0.31458511,0.18605804350000002,-45.9136965,40.652466,-137.622834,10.436505627056016,0.5091445991501455,150.6676747123858,18.99597872340403,28.83665957446821
31200,31200.0,5.65677035,-12.62795575,-0.365914909,-0.5153396674999999,-0.08665160989999998,-0.08068695270000001,-44.4427494,40.6278988,-138.40041399999998,13.852015151420789,0.5411747775768825,150.93200465902098,18.925361702127432,28.81778723404268
31300,31300.0,-2.019410715,-11.82522895,-1.5068039009999998,-2.119844815,-1.43020785,-1.24586788,-47.78442329999999,40.80780040000001,-131.764678,12.115789350248866,2.8484160937186562,145.98255525483518,18.854744680850835,28.798914893617145
31400,31400.0,2.4096832000000004,-10.938961825,0.415016937,-1.549662785,-0.34651795,-0.735391998,-49.283142100000006,40.4232795,-126.14456399999999,11.224366931571591,1.7518266004192815,141.33427246693657,18.78412765957424,28.78004255319161
31500,31500.0,-0.0663940454,-6.54021304,-0.177374268,-0.219567872,-0.979656984,-0.996221908,-51.7860409,38.5537721,-121.9281004,6.548733399692068,1.4172397596613142,137.96641008405174,18.71351063829764,28.76117021276608
31600,31600.0,0.097848516,-6.402304,-0.92387392,0.6675873000000001,-0.268270876,0.162353514,-52.442474600000004,38.247528100000004,-122.555545,6.493897718662184,0.7400663377880886,138.68292592684622,18.642893617021045,28.74229787234055
31700,31700.0,6.42332752,-11.165332199999998,-5.639981099999999,0.583422868,0.0455535896,0.25311889600000004,-51.0868835,38.7025449,-124.264525,14.073249113385314,0.6542430893621687,139.81938969562327,18.57227659574445,28.72342553191502
31800,31800.0,-1.58862914,-5.653637799999999,1.39323428,0.63434448,0.314852908,-0.005322263999999993,-50.9956355,38.36669929999999,-125.56686200000001,6.139483101748066,0.7343908862256565,140.85319504849082,18.50165957446785,28.704553191489488
31900,31900.0,7.0814971999999985,-11.765313699999998,-4.8175721399999984,0.15945434254680002,0.71901548,0.125714112,-48.7344345,39.63653529999999,-126.7327881,14.893958044182126,0.7910680539413457,141.44723547921464,18.431042553191254,28.68568085106396
32000,32000.0,1.89421692,-9.9165162,0.775997928,0.731927488,-0.5126465,0.693283078,-47.2767633,40.024260999999996,-130.836949,10.25871974634977,1.1318478847644688,144.75984903309313,18.360425531914657,28.66680851063843
32100,32100.0,-0.7774688759999999,-9.2145326,0.96682436,0.65863954,0.30718078680000005,-0.158071901,-46.35360710000001,39.7004698,-133.744198,9.30622757977454,0.7566613336116366,147.011237519543,18.289808510638057,28.647936170212887
32200,32200.0,1.89757382,-8.925790600000001,1.00154112,0.31860352000000003,0.6225006280000001,0.07798157,-45.6927488,38.756256,-135.368651,9.183820936027924,0.7041730831238598,148.0356620454476,18.219191489361464,28.629063829787363
32300,32300.0,1.94665222,-8.937530699999998,0.376168824,0.309655764,0.45866395200000004,0.37327576,-44.065858,38.7753297,-137.651065,9.15520173925874,0.6690325923250646,149.64348550381584,18.148574468084867,28.61019148936183
32400,32400.0,2.94958802,-9.2308226,1.80048526,0.239770508,0.1211822488,0.423348996,-42.0938111,39.385223499999995,-138.825071,9.856656444953023,0.5022859835162254,150.31797418679702,18.07795744680827,28.5913191489363
32500,32500.0,1.57866514,-10.0501192,-0.0768096912,0.10704650908,0.477404792,0.16427612200000002,-40.781707,39.11773529999999,-140.293576,10.17707011142216,0.5198013051404382,151.2470926344472,18.00734042553167,28.572446808510772
32600,32600.0,5.62749936,-11.985104199999999,0.51838988,-0.366793824,0.057055661999999986,-0.025772094,-39.25403768421053,39.39088521052632,-139.9503936842105,13.257625173642635,0.4033852135212976,150.59428326758086,17.936723404255073,28.553574468085237
32700,32700.0,-1.1901168775,-11.397568,-1.184425325,-1.97731015,-0.85224915,-1.16480255,-42.4926743,40.41702235,-134.9531595,11.577444281711154,2.4516568515657147,147.14494183893925,17.86610638297848,28.534702127659703
32800,32800.0,3.2397575,-11.374527,0.30715561075000003,-1.483028375,-0.3185577425,-0.6369629,-44.4503024,40.780716,-127.909469,11.84379756136082,1.6478044208369094,141.42057972198188,17.795489361701886,28.51582978723417
32900,32900.0,0.0581588735,-7.245121099999999,-0.4506072975,-0.2553100625,-0.915904975,-0.8939552275,-47.23815835,39.5568081,-124.72702,7.264759116732029,1.3060196236198691,139.11528112155614,17.724872340425286,28.496957446808644
33000,33000.0,0.7399139525,-6.86624905,-1.0805816625,0.3886451775,-0.20537567,-0.072376252,-48.72413615,38.5282894,-124.4111633,7.001449161180116,0.4515716435607025,139.0561462840358,17.654255319148692,28.47808510638311
33100,33100.0,4.3970527750000015,-7.993907875,-3.319755525,0.35456085000000004,0.1789207425,0.05998229975,-48.3385465,38.53012025,-124.4472492,9.717261435709922,0.4053247367667993,138.95432641081013,17.583638297872092,28.45921276595758
33200,33200.0,4.870807625,-9.46994025,-4.498005,0.5521659875,-0.5617065325,0.06290817224999999,-48.2398994,38.40972945,-126.161726,11.567081217017375,0.793037310338033,140.42500968570738,17.513021276595495,28.44034042553205
33300,33300.0,-1.0766869,-14.645908,-3.89855955,0.6632156250000001,0.04256820249999999,0.857070925,-46.92077675,38.430479600000005,-128.45062099999998,15.44164380185292,1.1825209074945802,142.04946890100226,17.442404255318902,28.421468085106522
33400,33400.0,-2.7528678315789468,-6.672111999999999,3.2608377578947367,0.4561904210526316,0.8162239113157894,0.1994444194736842,-45.3576664,38.64013645,-130.751646,7.987463415103352,1.0509730880710837,143.68848475716024,17.3717872340423,28.402595744680987
33500,33500.0,2.544245882,-9.6711152,0.106820679,0.9230331620000001,0.254769896,0.048690795599999996,-44.19494645,38.64013645,-132.3812855,10.084646519492184,0.979419268660917,144.8139074513337,17.301170212765705,28.383723404255452
33600,33600.0,2.5338272,-9.585161,1.01769563,0.18906707899999997,0.72317047,0.044747924800000005,-43.72024585000001,38.08158915,-135.2385705,9.96754768604327,0.7490597116949949,147.14331016553066,17.230553191489108,28.364851063829928
33700,33700.0,2.03391873,-9.212381,0.650186154,0.30474854,0.477195749,0.18046722199999998,-42.94372545,37.70797765,-136.536027,9.457751740383484,0.5954880942631859,148.01404264004026,17.15993617021251,28.345978723404393
33800,33800.0,2.4890533,-9.2840869,0.98908844,0.21005096399999998,0.20896301,0.49941101200000004,-41.1106111,37.87239065,-137.600708,9.66588576340541,0.5810549195123775,148.52059370885144,17.089319148935914,28.327106382978858
33900,33900.0,2.06635894,-9.998761,1.09395597,0.15007171800000002,0.414668275,0.303610231,-39.26246800000001,37.86758380000001,-138.88351799999998,10.268522345001074,0.5358362228746227,149.21176175879853,17.018702127659314,28.30823404255333
34000,34000.0,4.78209979,-11.210220300000001,0.383358763,-0.187289425,0.369175717,0.212318423,-37.893218700000006,37.85980255,-140.2085115,12.203955077300575,0.4818775654499092,150.0922991530064,16.94808510638272,28.2893617021278
34100,34100.0,1.9489890418,-10.77298325,-1.30312117,-1.703009005,-0.927833545,-1.170979335,-40.227814200000005,38.068008299999995,-136.0688,11.118212304344663,2.2664298786986574,146.9090898837037,16.877468085106123,28.27048936170227
34200,34200.0,0.804013815,-11.1161966,0.07564620982,-1.48409576,-0.130057527,-0.56420518,-43.07311995,38.891602299999995,-129.781955,11.157253520139227,1.5945449800523015,142.1662280438186,16.806851063829527,28.251617021276736
34300,34300.0,0.84028779,-8.2715813,0.24658813649999997,-0.567482762,-0.5520576575,-0.7491447425,-45.091398600000005,38.2419583,-125.67123275,8.319321627055553,1.094783663580993,138.88468783498965,16.73623404255293,28.2327446808512
34400,34400.0,0.6203788875,-7.232917015,-1.071366135,0.249891665,-0.350194544,-0.25458297550000003,-46.569824,37.474059999999994,-124.64447,7.347682631972607,0.5056806438439501,138.23638298890592,16.66561702127633,28.213872340425677
34500,34500.0,2.429019175,-7.43768076,-2.5935982,0.317594146,-0.080578611,-0.3077461205,-47.442627,36.62567,-124.43848,8.261322725869306,0.4890325318217696,138.12015734251256,16.594999999999736,28.195000000000142
34600,34600.0,5.03869915,-10.1871771,-3.777885355,0.570904545,-0.43743744,0.270912935,-47.354126,36.820984,-125.72174,11.981622375042935,0.7696110454371624,139.29879403849742,16.52438297872314,28.176127659574608
34700,34700.0,0.2024780599999998,-6.258893,0.143218996,0.471365356,0.670648204,-0.12292174800000001,-47.84851,36.5448,-127.13623,6.5365715584624,0.8733295240801657,140.67204162474147,16.453765957446542,28.15725531914908
34800,34800.0,5.35934458,-10.785607800000001,-2.72455442,0.045046997000000005,0.77951357,0.2105072,-46.006775,37.771606,-128.33557,12.625735198018337,0.9291372797447512,141.46849858871323,16.383148936169945,28.13838297872355
34900,34900.0,2.429083242,-9.939981,1.249337784,0.400411996,-0.438720702,0.7043579000000001,-44.851684999999996,37.965393,-130.92651,10.39245886598574,0.9271327668153004,143.508869878359,16.312531914893352,28.119510638298017
35000,35000.0,-0.6098785320000001,-8.8812654,1.11191406,0.695278918,0.3958130016,-0.1054565452,-44.27948,37.876892,-133.33435,8.977799318580379,0.8388795489927238,145.5107562573041,16.24191489361675,28.100638297872486
35100,35100.0,1.92917478,-9.2116638,0.50953369,0.35184326,0.261160278,0.221365356,-43.702698,37.97455,-134.79004,9.433829864164966,0.4957566477148608,146.69814976128123,16.171297872340155,28.08176595744695
35200,35200.0,1.77451168,-9.2265074,0.5684326239999999,0.31604615199999997,0.433303836,0.40650939799999997,-42.538452,37.973022,-136.10076999999998,9.415663480749245,0.6760670732770778,147.56317254979882,16.100680851063558,28.062893617021427
35300,35300.0,2.5183837650000003,-9.22680765,1.835797125,0.0779083255,0.35527114600000004,0.452753456,-40.400696,38.441466999999996,-137.61139,9.739337068308066,0.5830028767297715,148.48184158384018,16.03006382978696,28.044021276595892
35400,35400.0,2.23060453,-10.010609625,0.37827148475,0.2611900305,0.3546913115,0.23324661300000002,-39.52942,39.00757,-138.28735,10.27192818766499,0.5035521836417904,149.0220008349901,15.959446808510366,28.025148936170357
35500,35500.0,4.8168182,-12.36536705,0.154768379,-0.415899667,-0.08212280029999999,-0.14624557130000002,-38.845825,39.66217,-137.52594,13.276771225320505,0.4704330869509396,148.3086984027677,15.888829787233773,28.00627659574483
35600,35600.0,-1.7187553555000004,-11.0583727,-1.8730003419999999,-1.9559532,-0.807939905,-1.147605895,-42.721558,40.322876,-131.52313,11.520661737799553,2.412364870161754,144.04651877728818,15.818212765957176,27.987404255319294
35700,35700.0,3.84435201,-11.18724185,0.5258102240000001,-1.46150057,-0.008089446500000014,-0.5990402235,-44.34662,40.400696,-125.57526000000001,11.871047392852564,1.5927877508619737,139.16890768694142,15.74759574468058,27.96853191489377
35800,35800.0,0.34636077600000004,-7.183953,-0.691048433,-0.13403091350000002,-0.9174995565,-0.740615087,-47.73407,38.606262,-122.08252,7.233113444392371,1.1914349194386662,136.6496490808811,15.676978723403986,27.949659574468235
35900,35900.0,1.160695625,-7.07202135,-1.373685485,0.47322388299999996,-0.3407089245,-0.0334403994,-48.709106,37.95166,-122.517395,7.3059676920129615,0.5935729894232191,137.1984605659293,15.60636170212739,27.9307872340427
36000,36000.0,3.912782263157895,-9.076959894736842,-4.137695405263158,0.3993377657894737,-0.08705621236842104,0.1638504836842105,-48.416138000000004,37.760925,-122.84088,10.720744706509846,0.44475647722544975,137.3313208079827,15.535744680850794,27.911914893617173
36100,36100.0,4.801348242105263,-8.377851736842105,-4.44616452631579,0.1320656247368421,-0.3943529610526316,-0.32959546526315786,-48.31848,37.571715999999995,-122.839355,10.632978900591759,0.5485884049676701,137.24363915865493,15.465127659574199,27.89304255319164
36200,36200.0,0.6151123500000004,-16.556472499999998,-6.0096435999999995,0.6248703099999999,-0.6855392499999999,1.2056732,-46.94003128571429,38.44989557142857,-125.57387428571428,17.962515243057016,1.5665219475053411,139.4653660755293,15.394510638297605,27.87417021276611
36300,36300.0,-3.70821385,-6.443366999999999,3.1834945,0.491706835,1.16269685,0.284225465,-45.1197814,38.82202315,-128.28232,8.249580787293779,1.348789479249241,141.41894257758716,15.32389361702101,27.85529787234058
36400,36400.0,4.0645599,-9.6162875,0.16680146499999993,0.77560425,0.10488891499999996,0.019508358000000003,-43.69415265,39.1687774,-130.52672900000002,10.563157135134734,0.8430146820727521,143.11047980787694,15.253276595744415,27.83642553191505
36500,36500.0,1.92594145,-9.39901,0.48104095,0.3431015,0.38079071,-0.000205994000000001,-43.8773355,38.33091745,-132.535244,9.6082515740679,0.5198224096533701,144.7759362835105,15.182659574467822,27.81755319148952
36600,36600.0,2.0871413789473685,-9.354118578947368,0.8784693684210526,0.3818953631578947,0.3388286405263158,0.20656866736842106,-43.18550215,38.23661765,-133.73474299999998,9.624471566601565,0.5514297029924561,145.64354041671174,15.112042553191225,27.798680851063985
36700,36700.0,2.57920002,-9.5898232,0.237010201,0.2325263985,0.194903567,0.522361755,-41.05735825,38.143539200000006,-135.829389,9.93393110146587,0.6043897111007552,146.93625912228217,15.04142553191463,27.77980851063845
36800,36800.0,2.087128465,-9.688590699999999,1.43374634,0.12525482229999998,0.239752191,0.15042877,-39.60098285,38.044662100000004,-135.7356265,10.015596801928798,0.31237012732887226,146.4233546965248,14.970808510638035,27.760936170212922
36900,36900.0,3.962086495,-11.22392775,1.088204205,-0.1377067569,0.394801333,0.26830215399999996,-38.23265235,38.447952,-137.64458100000002,11.960292973738884,0.5096300584424416,147.93926998866658,14.900191489361438,27.742063829787394
37000,37000.0,1.8442382885,-10.38332835,-1.23656079,-1.49889296,-0.666316218,-1.0104453935,-39.54818770000001,39.0867614,-134.8602285,10.668403451402346,1.9288323373617435,145.8738832527912,14.829574468084845,27.72319148936186
37100,37100.0,0.4739799315000001,-11.0744713,0.04332199350000005,-1.587796,0.05104217625,-0.522026824,-42.2262573,39.63432325,-128.76320299999998,11.10952773632674,1.6750043163885393,141.18751614918585,14.75895744680825,27.704319148936328
37200,37200.0,1.1338165225,-8.94087945,0.12005233449999995,-0.5644493165,-0.2991661015,-0.9011489965,-44.27078210000001,38.87306185,-124.8882297,9.022999231709305,1.1102676960796165,138.08734663167021,14.688340425531655,27.6854468085108
37300,37300.0,-0.2102905268,-7.165820340000002,-1.05340576,0.29260559,-0.565057378,-0.388171384,-46.4898681,37.4677275,-124.28802179999998,7.249204649506266,0.7522240994655979,137.88644205971391,14.617723404255061,27.666574468085265
37400,37400.0,2.87297064,-7.50771176,-3.54553222,0.39935607799999995,-0.44681396,0.262915038,-46.45591725,37.56080645,-124.16374420000001,8.790132779381945,0.6605112181197639,137.78825847427242,14.547106382978466,27.64770212765973
37500,37500.0,5.7311678000000015,-11.052087199999999,-4.17304992,0.045254516000000015,-0.519885252,-0.1371978768,-45.89599565,37.55943315,-124.514693,13.142602869988751,0.5551496019930497,137.9168736652456,14.47648936170187,27.628829787234203
37600,37600.0,-1.99205322,-11.6642826,-0.17760315999999987,1.0809082,0.10201112199999997,0.94403988,-45.38421629999999,37.869797,-126.96212620000001,11.99420916927438,1.4972439465726055,140.0473589787645,14.405872340425274,27.60995744680867
37700,37700.0,-1.5800079040000001,-5.81477056,3.92653802,0.1230194072,1.58996582,-0.242016606,-44.14787325,37.85873265,-129.2397315,7.711119568364582,1.6149289215174834,141.72240594003432,14.33525531914868,27.591085106383144
37800,37800.0,6.7850952000000015,-13.657940400000001,0.31368407600000003,0.882345582,-0.16665038540000005,0.46851196,-42.608566700000004,38.1187439,-131.3246165,15.271363518475145,1.0555111089768674,143.2295192185874,14.264638297872086,27.57221276595761
37900,37900.0,1.633727984,-8.3109648,0.38551025200000005,0.31562195,0.4565338,-0.012777708,-42.4226376,37.3049165,-133.720013,8.538539277041275,0.5774559553615329,145.16328683062625,14.194021276595487,27.553340425532078
38000,38000.0,2.030326865,-9.21142775,1.11915053,0.4427055425,0.319537349,0.20991897699999998,-41.268615999999994,37.0167538,-135.575107,9.506760856588334,0.5858599216716451,146.47169048141456,14.123404255318894,27.534468085106546
38100,38100.0,2.39981384,-8.649871249999999,1.070256075,0.1955612205,0.458338924,0.5924545160000001,-39.3673706,37.5332627,-137.159267,9.04237507566407,0.7748506307085334,147.5508178253079,14.0527872340423,27.51559574468101
38200,38200.0,2.934494865,-10.22506695,1.69621432,0.2060600275,0.2673370425,0.23932113600000002,-37.1763614,37.23388660000001,-138.73260399999998,10.778997973987552,0.41785483407178414,148.37522006382778,13.982170212765705,27.496723404255487
38300,38300.0,4.620797045,-11.8749147,-0.2299179084999999,-0.3019615195,0.035170745,-0.0021240210000000176,-36.2518318,37.672425,-138.65920999999997,12.753277254046635,0.3566197009415902,148.18840292851192,13.911553191489107,27.477851063829952
38400,38400.0,-0.7680106900000001,-11.481429499999999,-0.9937324390000001,-2.173582475,-1.236814115,-1.29657667,-39.098053,38.8304143,-133.09799600000002,11.666242716825234,2.818345288383832,144.05441614219092,13.840936170212517,27.45897872340442
38500,38500.0,2.071326794736842,-10.152528421052633,-0.00869909999999996,-1.6426584263157895,0.16927859947368426,-0.5530242842105263,-40.867462100000004,40.0460815,-127.1397399,10.41621360281746,1.7417209815139565,139.42178419390396,13.770319148935918,27.440106382978893
38600,38600.0,1.24670713,-7.58804001,-0.15247345100000007,-0.13381195140000002,-1.04921724,-0.78328096,-43.2896425,39.753264,-124.1415405,7.70046663215456,1.3278592416011576,137.35157309632808,13.699702127659323,27.42123404255336
38700,38700.0,0.53515169,-7.243870559999999,-1.81116795,0.672695912,-0.267640695,-0.091067506,-44.725342299999994,39.5652776,-124.4601435,7.518232505124854,0.733248090480354,138.04382126139507,13.629085106382728,27.402361702127827
38800,38800.0,3.49881134,-8.4973555,-2.85096889,0.57991637,0.103607176,0.261531065,-43.9434814,40.1100158,-126.9363404,9.624613559869186,0.6454724440414736,140.18801519087344,13.558468085106131,27.3834893617023
38900,38900.0,5.476425150000002,-6.850378200000001,-3.29832307,0.0006225585000000089,-0.2255599988,-0.490762335,-43.6193844,40.6930537,-126.16180420000002,9.40895391576507,0.6213017025005426,139.55422829076457,13.487851063829536,27.364617021276764
39000,39000.0,5.394541922999999,-17.0318497,-10.055607400000001,0.5476379490000001,-1.20016629,0.86618043,-42.0011896,41.38748130000001,-129.176632,20.879422924383,1.5991783417271783,141.99875386515663,13.417234042552945,27.345744680851237
39100,39100.0,-4.182266225,-5.95854185,2.47031785,0.5068855200000001,0.12166214050000003,0.4605255325000001,-41.5718081,41.7138676,-130.72861,7.751249747018807,0.7954352856536399,143.3818378955864,13.346617021276348,27.3268723404257
39200,39200.0,1.4093932975000003,-9.56121825,-0.202503205,0.8381843474999999,0.8508415425,-0.226837165,-39.8051468,42.208861999999996,-133.600006,9.8072010559651,1.2327532148892288,145.6537091434653,13.275999999999753,27.30800000000017
39300,39300.0,2.721714,-9.333465749999998,0.801567075,0.3002205,0.6337929,0.06690597499999999,-39.4993591,41.8730164,-135.227963,9.75897273426349,0.7045473748015244,146.96997487444168,13.20538297872316,27.289127659574643
39400,39400.0,1.71848148,-9.1453403,0.354388428,0.39850464,0.37408141799999994,0.28145142,-38.3547224,42.20840495,-137.7582515,9.312781182562507,0.6151620233807307,149.09721010641329,13.134765957446566,27.270255319149108
39500,39500.0,2.28088076,-8.961712599999998,1.33337706,0.104061888,0.20853577,0.5081420919999999,-36.45390090476191,42.89187523809524,-138.65908761904765,9.344909241597179,0.5602533218340692,149.64960720063263,13.064148936169968,27.251382978723573
39600,39600.0,2.17290036,-9.876291199999999,1.2689758000000002,0.189709474,0.40475769,0.36795044,-34.2689515,43.101502,-139.672088,10.192838253251756,0.5792376041116768,150.13464942279415,12.993531914893373,27.23251063829805
39700,39700.0,5.6361206,-12.1874148,1.00584718,-0.293716432,-0.2804260218,-0.04729309199999998,-33.314514,43.992615,-139.06708,13.468549346855555,0.4311109116116291,149.6157069204996,12.922914893616776,27.213638297872514
39800,39800.0,-1.6939666600000003,-10.434616400000001,-1.52386172,-1.99727786,-1.077874792,-1.14429626,-37.3266604,45.386047999999995,-133.923033,10.727073226487192,2.5423816012471803,146.24998866663375,12.85229787234018,27.194765957446986
39900,39900.0,3.3248860947368417,-11.140065263157897,0.2478605573684211,-1.5057959368421052,-0.19795949642105265,-0.6726620157894737,-40.830688200000004,46.3372804,-125.832521,11.635308333109572,1.6653917654193717,140.17207548267905,12.781680851063587,27.17589361702145
40000,40000.0,0.4445892325,-7.8824654999999995,-0.49896850297,-0.12965622100000002,-0.8126792909999999,-0.841182711,-44.040222,45.475617,-121.23443400000001,7.913858096099463,1.179989737403514,136.76774627354823,12.711063829786992,27.15702127659592
40100,40100.0,0.6576171654999999,-7.72892762,-2.014073955,0.32893295699999997,-0.638502495,-0.03552246105000001,-45.7054138,44.7462473,-121.1354045,8.022496706942832,0.7241440647566011,136.9853962148583,12.640446808510394,27.138148936170392
40200,40200.0,3.30661313,-8.361839750000001,-3.776335115,0.2947456395,0.165016176,0.1098335251,-45.613709,45.032958799999996,-121.910704,9.75478472266865,0.3570141612028296,137.7345373609573,12.569829787233804,27.119276595744857
40300,40300.0,4.2107314,-8.59006455,-3.560430905,0.459541325,-0.4288154575,-0.11567993,-45.7928471,45.234680299999994,-122.2766115,10.213664868961306,0.6409350489630472,138.1837102811927,12.499212765957207,27.10040425531933
40400,40400.0,-1.648540455,-12.72832175,-1.676858507,0.94662553,0.56225355,0.8049781844999999,-44.597778000000005,45.7109078,-124.49295,12.958778652230912,1.3659669376021029,139.91790159457528,12.428595744680614,27.081531914893798
40500,40500.0,-0.5068626410000001,-7.227715295,2.81951371,0.440732572,1.482594335,0.1533042865,-42.506569052631576,46.164822421052634,-127.28038631578949,7.8302561754872695,1.5550543134836006,141.9095873810074,12.357978723404017,27.062659574468263
40600,40600.0,4.43572315,-10.7083352,0.3388778725,0.7180824459999999,-0.15355071800000006,0.175880435,-41.1949162,46.5264889,-129.525448,11.60497007602228,0.7690474207244149,143.66138329897743,12.287361702127422,27.043787234042732
40700,40700.0,1.2312042575,-9.32090145,0.065649414,0.4208641025,0.30504836949999997,-0.0876052859,-41.6532896,45.715332000000004,-131.870114,9.403909046244536,0.5319701374926105,145.6524227408213,12.216744680850828,27.0249148936172
40800,40800.0,2.24658969,-9.00904985,1.244975235,0.380707563,0.525884229,0.2022010805,-40.5773928,45.537263,-133.540647,9.368570400539586,0.6804939500698217,146.81044042864147,12.146127659574232,27.006042553191673
40900,40900.0,2.411840075,-9.1781474,0.7820533924999999,0.299807738,0.3698188795,0.552667214,-38.15910225,45.5372609,-135.790256,9.523824837957038,0.7301282693243539,148.21862265665519,12.075510638297635,26.987170212766138
41000,41000.0,2.75325922,-9.827811800000001,1.25400392,0.197795107,0.242948915,0.285075377,-36.1260205,45.7157906,-136.1743185,10.28311749440377,0.4237900986579369,148.1164086555161,12.004893617021038,26.968297872340607
41100,41100.0,3.10509189,-10.4431212,0.5220947260000001,-0.0928085305,0.57221679,0.148396304,-34.6228775,45.885772499999995,-137.10914499999998,10.90914391822684,0.5998152052680941,148.671379532643,11.934276595744445,26.94942553191507
41200,41200.0,4.07808534,-11.4046298,-1.18281253,-1.15998379,-0.5744308499999999,-0.8061828590000001,-34.96399,46.446228000000005,-134.60846,12.170657964332257,1.5259644772165817,146.6259533497385,11.863659574467851,26.930553191489548
41300,41300.0,-1.60490419,-11.2967784,0.2029586796,-1.73650358,0.3021682730000001,-0.47935637,-38.539048,47.34237645,-127.0085139,11.422217046038046,1.8366200571472395,140.91812934375324,11.793042553191256,26.91168085106401
41400,41400.0,1.0503799459999998,-8.719061300000002,-0.21567382699999996,-0.826345824,-0.127769472,-0.6741943469999999,-40.13931420000001,47.42973355,-120.87051409999998,8.798131976561619,1.0758951637049952,135.90610056775756,11.722425531914661,26.89280851063848
41500,41500.0,0.36755525,-6.86043227,-0.424566646,0.12344360899999998,-0.335498043,-0.6129501399999999,-42.74787885,46.5351866,-119.47173799999999,6.889471054780662,0.7120526821554881,135.1534021358995,11.651808510638066,26.87393617021295
41600,41600.0,3.27040402,-8.4391739,-3.39134982,0.08967590199999999,-0.7426361140000001,-0.10396576,-43.2726289,46.4408098,-119.07028100000001,9.668461868594836,0.7553553393744841,134.9333227734744,11.581191489361473,26.855063829787422
41700,41700.0,2.474578815,-8.19370815,-1.98708419,0.55636444,0.132695004,0.2766082725,-42.833557,46.9030764,-120.37750279999999,8.787158685048487,0.6362625450918201,136.1081332054383,11.510574468084874,26.83619148936189
41800,41800.0,3.53005751,-9.7549012,-3.97181858,0.35689544450000005,-0.07519378560000006,0.04735488950000001,-41.1883542,47.961426,-121.855162,11.113952227394797,0.37917611789602895,137.27878918506056,11.439957446808279,26.817319148936356
41900,41900.0,4.89624573,-10.48094665,-2.988514745,0.050530243250000016,0.09380721799999993,0.43304138,-39.0191654,48.621826,-124.3283088,11.98324785307476,0.4636674174765996,139.083138211976,11.369340425531686,26.798446808510825
42000,42000.0,1.6498923849999998,-8.959375849999997,0.394430536,0.7682441715,-0.005844878500000039,0.5467521559999999,-37.776184,49.29473839999999,-128.17596799999998,9.155034131498887,0.9457548437746164,142.4293670793846,11.29872340425509,26.77957446808529
42100,42100.0,-0.0029541039999998464,-9.54361925,0.630557255,0.777204892,0.33349151200000005,-0.11050644050000001,-36.65802,49.544067600000005,-130.48035000000002,9.56935148432346,0.8535698490237901,144.30373540400984,11.228106382978497,26.76070212765976
42200,42200.0,1.499768055,-9.071300099999998,1.32433622,0.200842286,0.42264863,0.08784408565,-36.022339,49.5465092,-132.030946,9.289421459306368,0.4762683346006244,145.54948525727116,11.1574893617019,26.74182978723423
42300,42300.0,1.803416425,-8.9694334,0.69981534,0.34959716799999996,0.5676368780000001,0.2959907525,-34.826050200000005,49.6261596,-134.429016,9.17584311382952,0.7296048543832482,147.46796917826396,11.086872340425305,26.7229574468087
42400,42400.0,2.0977325,-9.387634,1.6541901,0.17372131,0.2726593,0.47064209999999995,-32.27478060000001,49.937745,-135.438536,9.760353407866454,0.5709870171177416,147.91587857621568,11.01625531914871,26.70408510638317
42500,42500.0,2.2605286,-10.192093,0.5241394,0.11940002400000001,0.40475464,0.25865173,-29.881592200000004,50.099794,-136.885982,10.452916883946763,0.4949579797969956,148.7974298680139,10.945638297872117,26.68521276595764
42600,42600.0,4.9097137,-11.90155,0.67736816,-0.391922,0.22685242,0.037078857,-28.752440999999997,51.0946652,-136.33636199999998,12.892284849577653,0.4543563757451664,148.4082705226451,10.875021276595518,26.66634042553211
42700,42700.0,0.38108826,-10.565582000000001,-0.888443,-2.111267,-0.9332123,-1.3030243000000001,-32.259827,52.9800414,-129.638668,10.609716406430607,2.6506991282585766,143.71730692116594,10.804404255318923,26.647468085106567
42800,42800.0,3.439682,-12.091888,-0.39883423,-1.6329651,-0.07141113,-0.62124634,-36.4504992,53.59130940000001,-120.6909172,12.577926554432088,1.7486056108423311,136.99358321939062,10.73378723404233,26.62859574468105
42900,42900.0,1.1137085,-7.7057037,0.06803894,-0.24705505,-0.94493103,-0.96533203,-41.164552,52.6901248,-115.999452,7.786067391984369,1.3732431603074833,133.89070341046278,10.663170212765737,26.609723404255508
43000,43000.0,-0.0061775216500000035,-7.19407573,-1.03897777,0.4633255025,-0.6252410850000001,-0.250015255,-43.7359624,52.2662348,-115.433044,7.272418744404505,0.8177187954511375,134.0499800074183,10.592553191489142,26.59085106382998
43100,43100.0,2.9942412750000003,-8.500767249999999,-3.827500905,0.4219917295,-0.17032165555,-0.08825301925000001,-44.411317,52.5991812,-116.98303,9.792078741212562,0.4653638275282795,135.73539294958462,10.521936170212543,26.57197872340445
43200,43200.0,4.98004323,-9.757486,-3.46778185,0.576396943,-0.4041023285,0.026593017450000003,-45.1507564,53.2196034,-119.144896,11.492132498345569,0.7058972053623296,138.08123981685145,10.45131914893595,26.55310638297892
43300,43300.0,-1.7716583099999998,-9.8766465,-0.6890121499999999,0.9538253784999999,0.5745079035,0.5763122285000001,-45.304565999999994,53.874512,-121.32324399999999,10.062377678387383,1.2559978314345144,140.2654978613327,10.380702127659355,26.534234042553386
43400,43400.0,1.631159235,-7.34107278,3.919349,0.07465744049999999,2.05069965,-0.0427070619,-43.6087034,54.6539292,-124.486084,8.535433379039164,2.0533706752234187,142.7785632629541,10.31008510638276,26.51536170212785
43500,43500.0,7.123389475,-13.02060435,2.372757004,0.5780418599999999,-0.431894686,0.7608192490000001,-41.7568974,55.09429960000001,-128.0285648,15.03766815932394,1.0546060896992326,145.50057474253617,10.239468085106164,26.496489361702324
43600,43600.0,1.087731936,-9.649679199999998,0.0262542729,0.42906647700000006,0.34564361600000004,-0.060389708,-42.17758175,54.244994999999996,-132.414625,9.718163562356214,0.5579058123249522,149.18149096091543,10.16885106382957,26.47761702127679
43700,43700.0,1.95634465,-8.90101505,1.03816833,0.281214908,0.209068297,0.149462892,-41.94450425,54.01535025,-134.5691675,9.172465921161553,0.3810296447674109,150.94988298997288,10.098234042552974,26.458744680851265
43800,43800.0,1.38126371,-9.4826906,0.14274292,0.27034759199999997,0.370352169,0.483961486,-40.88516125,54.06723050000001,-136.99569499999998,9.587927890166236,0.667483218335986,152.84870976834523,10.02761702127638,26.43987234042573
43900,43900.0,3.15584567,-9.8877918,1.90786287,0.1200332646,0.261587527,0.367944345,-38.94119125,53.94554,-138.7649575,10.553972937823037,0.4675158012819661,153.89053305070303,9.956999999999782,26.421000000000202
44000,44000.0,2.93294376,-10.2976689,-0.128999329,-0.09695434900000001,0.7148559729999999,0.046875,-38.51013175,53.97300825,-140.254215,10.710981102244117,0.7246068966674742,155.13660914946175,9.886382978723187,26.40212765957467
44100,44100.0,6.54327696,-11.8968751,-1.3226272200000002,-0.99848784,-0.6302520899999999,-0.488836664,-40.093231,54.42733775,-138.98048500000002,13.642479211312187,1.2792009599491805,154.55040705700017,9.815765957446594,26.383255319149136
44200,44200.0,-3.97193147,-12.049745199999998,-0.019584656000000002,-1.80435788,-0.6724304170000001,-0.709033185,-49.09553525,54.179001,-129.572675,12.701387246084291,2.0647526432514747,148.77891793718544,9.74514893617,26.364382978723608
44300,44300.0,2.666411563157894,-8.451250526315789,1.311326694736842,-0.7705415410526316,-0.09507912063157893,-0.7591737673684209,-54.153061,52.83279425,-123.369215,8.965314222663244,1.09144789522287,144.72062659331968,9.674531914893404,26.345510638298073
44400,44400.0,0.5450225642000001,-6.701158135,-1.12421263,0.1534355185,-1.105257414,-0.471800234,-59.1472625,50.8316035,-119.30542,6.820335936970077,1.2150572354278562,142.53477477432924,9.603914893616807,26.326638297872538
44500,44500.0,2.7517052200000003,-9.13576525,-3.174073785,0.5160430954999999,-0.3574958795,0.007517242404999999,-60.585021999999995,50.2258305,-119.48738,10.058171932124123,0.6282994627000029,143.07511190264944,9.533297872340214,26.307765957447014
44600,44600.0,3.533881345,-8.49023055,-2.51794355,0.379215245,0.082405088,0.1370071405,-61.3185875,50.3711695,-119.38972475,9.53691913755554,0.4240277886973523,143.35670169409383,9.462680851063617,26.28889361702148
44700,44700.0,3.2908806725,-6.57504504,-3.0461555610000004,0.3926963805,-0.25692520350000003,-0.190569304425,-62.14561475,50.13885575,-119.12041,8.095613842440628,0.5644121988633184,143.40738748433313,9.392063829787023,26.27002127659595
44800,44800.0,5.353662150000001,-14.85558055,-7.83145189,0.37836152149999996,-0.7285758975000001,0.5175674485,-60.31913725,52.50587575,-121.621325,17.654733616290773,1.0927548961682223,145.55764232358283,9.321446808510428,26.251148936170416
44900,44900.0,-2.494894435,-8.252724495,1.357258585,0.7071014449999999,-0.036423491,0.5771095,-60.615541,53.4248355,-125.540925,8.9347583902065,0.9293005170518474,149.2955870266573,9.250829787233831,26.232276595744885
45000,45000.0,-0.627120976,-8.8391234,0.5942809960000001,0.78071593,0.7637573259999999,-0.17490234,-59.68971325,54.19311525,-129.17404249999998,8.887216515486285,1.1093624124841714,152.26849776300168,9.180212765957238,26.213404255319357
45100,45100.0,1.73021546,-9.1671295,1.038644404,0.195666504,0.613546756,0.00426330576,-59.87854125,54.3258665,-132.162475,9.392479882707649,0.6440844713334133,154.93124841438538,9.109595744680645,26.194531914893822
45200,45200.0,1.76206054,-9.3857174,0.8993072679999999,0.327120976,0.538125614,0.204544068,-59.234619499999994,54.333115,-134.73319750000002,9.600265882398233,0.6634686593832222,156.88833428036043,9.038978723404046,26.175659574468288
45300,45300.0,2.37162472,-9.540155,0.80329286,0.20909423800000002,0.43565369200000004,0.41929932,-57.13348375,55.44548,-137.4935175,9.863543698346476,0.6405589516268998,158.8806924456748,8.968361702127453,26.156787234042763
45400,45400.0,2.5911713,-9.6519561,1.2198883,0.018841553,0.7040985040000001,0.280816652,-55.0006103,56.5982056,-139.832762,10.07479252256019,0.7590347852372429,160.56668152567548,8.897744680850858,26.13791489361723
45500,45500.0,3.9869873,-10.704931199999999,1.48659972,-0.038684082,0.2266448978,0.258441166,-53.611101857142856,57.66361800000001,-140.74903428571432,11.521686408639765,0.35843210574826123,161.27477112976533,8.827127659574263,26.119042553191694
45600,45600.0,2.921337125,-11.80098725,-2.71492005,-1.1245651,-0.68687058,-0.68943405,-55.930329500000006,58.36105379999999,-136.607208,12.476999711891962,1.4960071412395737,158.73527852960933,8.756510638297668,26.10017021276617
45700,45700.0,-1.4834022875,-10.8780325,0.241016387,-1.9999466000000001,0.2138061525,-0.5176544325,-61.449738,57.5814821,-124.30266999999999,11.013646880863224,2.0811409802784184,150.14473374495864,8.685893617021073,26.081297872340635
45800,45800.0,1.77689745,-8.827400125,0.17098998999999998,-1.073959375,-0.2141647325,-0.756004315,-64.32952789473684,55.93342057894736,-115.64780810526315,9.019109207656706,1.3380341480470015,143.676158410112,8.615276595744477,26.062425531915107
45900,45900.0,1.425251025,-6.799209625,-0.93333055,0.244029995,-0.6549110375,-0.6665306099999999,-67.644198,51.0971072,-109.80529579999998,7.025295834555718,0.9705264265309406,138.72271769995137,8.544659574467882,26.043553191489572
46000,46000.0,1.7412948499999998,-8.259369,-3.086925525,0.669879925,-0.4455871625,0.06504058900000001,-67.6637265,49.9763492,-109.301604,9.005217121614354,0.8078012021284782,137.92343024258005,8.474042553191287,26.024680851064037
46100,46100.0,4.2318610749999985,-10.0610045,-3.745327025,0.2677307125,-0.08659744227525,0.048000335850000006,-67.1429435,49.733886600000005,-110.6823705,11.544207092732403,0.34651718483197264,138.6804720348896,8.403425531914692,26.005808510638513
46200,46200.0,0.4328575250000001,-7.111350999999999,-0.57600403,0.4818573025,0.3219299375,-0.07025146000000003,-66.7620858,47.682953999999995,-107.9519655,7.253025252635165,0.6200837503276385,135.59017158970687,8.332808510638097,25.986936170212974
46300,46300.0,4.1825913,-10.519377,-3.557504358,0.217932133,0.40135041229999996,0.273997497,-63.8208,49.8732,-110.227965,12.009923082037355,0.6907254292572054,136.78714683848958,8.262191489361504,25.96806382978745
46400,46400.0,1.3081192076000003,-9.5445769,1.66664432,0.5217514120000001,0.11116638299999998,0.722470092,-63.5893248,50.2070617,-115.48980719999999,9.94302702307964,0.9340082154906092,141.0762336833863,8.191574468084907,25.949191489361915
46500,46500.0,-0.38985137799999997,-9.18233815,-0.02137908949999999,0.787962339,0.452157585,-0.182467653,-61.7614749,51.1434935,-117.622989,9.202812128384153,0.9283845557465662,142.35645743620748,8.120957446808312,25.930319148936388
46600,46600.0,1.68101042,-9.059387300000001,0.71387634,0.200357058,0.7378661999999999,0.1078125002,-61.059265100000005,50.7696535,-119.8684693,9.2455610578483,0.7721571615894584,143.78565913505713,8.050340425531717,25.911446808510853
46700,46700.0,1.95539094,-8.9384858,0.7154358080000001,0.292291264,0.410296631,0.35899811800000003,-60.1641846,50.41519200000001,-122.37564,9.178186498547774,0.6217718031974686,145.38690373587352,7.979723404255121,25.89257446808532
46800,46800.0,2.63988954,-9.0544848,1.22359773,0.245736697,0.134185791,0.487052926,-56.9534304,51.518401,-123.4220878,9.511510039459939,0.5629896452576808,145.36473983540589,7.909106382978525,25.873702127659786
46900,46900.0,2.14746172,-9.8537269,0.16362686449999994,0.17297745050000002,0.529022223,0.12512969975,-54.74487320000001,51.7089843,-124.56146499999998,10.08792467461125,0.57411045975249,145.55557469945856,7.838489361701928,25.854829787234262
47000,47000.0,5.548426035,-11.62591535,0.5822563307499999,-0.44188308950000005,-0.1017715424,-0.04137496925,-52.8675842,50.8413697,-123.51486100000001,12.902742840313985,0.4821092001099305,143.65153736615022,7.767872340425332,25.835957446808727
47100,47100.0,-1.863835905,-12.0397523,-2.373029305,-1.86939542,-1.020565775,-1.33722002,-53.8004302,46.80107125,-114.49554350000001,12.528035548278506,2.524441806752603,134.88689202491415,7.697255319148737,25.8170851063832
47200,47200.0,3.536705755,-10.987502699999999,0.5419677700000001,-1.3839538699999998,-0.03280258225000002,-0.514244842,-54.1908265,43.14933845,-108.2125841,11.59890325805558,1.4899644034526407,128.48556892747536,7.626638297872142,25.798212765957665
47300,47300.0,0.4111305265,-7.854206925,-0.5597847,-0.1171989412,-1.07676311,-0.732521805,-53.3291637,40.323257,-103.33404575,7.888672677480452,1.3094196328970569,123.07682137597868,7.556021276595545,25.77934042553213
47400,47400.0,1.53819732,-7.75107515,-2.02849881,0.23908081200000006,-0.2768478405,-0.17671661600000002,-52.83332705,39.348984,-103.062744,8.16819580618443,0.4150956880070856,122.31805505561718,7.485404255318949,25.760468085106602
47500,47500.0,2.82789918,-8.261407,-2.736948405,0.383162691,0.0236038216,0.1423881515,-51.72798175,40.03250095,-102.90473825,9.154376494143255,0.4116361704155933,121.93357098447369,7.414787234042352,25.74159574468107
47600,47600.0,5.88109976,-9.791841025,-4.5673775,0.1263236954,-0.71169128,-0.2619903575,-49.7472386,40.926285,-103.0404685,12.321914844292095,0.7783929293900094,121.52009032907029,7.344170212765758,25.72272340425554
47700,47700.0,-2.751795935,-8.779694000000001,0.5767456075,0.836694335,0.22765502985,0.8231414675,-48.7832645,42.08457975,-104.914245,9.327555741291317,1.2119234717427754,123.11842062131396,7.273553191489161,25.70385106383001
47800,47800.0,2.7909659885000004,-8.3371778,2.4798401,0.10124053975,1.539586655,0.0922065726,-46.41700705,44.17808545,-107.2102355,9.582021285670153,1.549717524819583,124.90130605125444,7.202936170212566,25.68497872340448
47900,47900.0,4.76396713,-11.1184121,0.6803611575,0.71994324,-0.13842010400000002,0.508094022,-45.74630655,45.77804545,-110.34537900000001,12.127761108030366,0.8928805336694988,127.92406177735808,7.132319148935969,25.666106382978946
48000,48000.0,2.008179475,-9.55828515,0.6480949375,0.575440209,0.06296996905,0.033459472895,-44.8018641,46.88316375,-112.9030585,9.798457040582068,0.6034356517572892,130.20116854434664,7.061702127659372,25.64723404255341
48100,48100.0,1.39706267,-9.0701661,1.1352523680000002,0.17117461899999997,0.463667299,0.012789916699999996,-45.5621334,47.1470639,-114.902877,9.250118474445696,0.4963657383184178,132.29298412411424,6.991085106382777,25.628361702127886
48200,48200.0,1.53388676,-9.1313446,0.21671600300000002,0.290589907,0.5738220239999999,0.285925292,-45.02319305,47.47337385,-116.7441576,9.264020282793052,0.7048154090108176,133.82834432313678,6.920468085106182,25.60948936170235
48300,48300.0,2.82604217,-9.302403300000002,0.977955592,0.19321899399999998,0.205552669,0.283154297,-43.7004086,48.13278250000001,-118.6420439,9.77843975173022,0.4002208521536673,135.28647398305242,6.849851063829585,25.590617021276824
48400,48400.0,1.96137237,-9.96032865,0.7050125,0.185658268,0.36001892,0.20433044,-43.178711,48.2563024,-119.521024,10.179218270342362,0.455573784618926,135.93549275108907,6.7792340425529884,25.57174468085129
48500,48500.0,4.56040346,-10.8859342,-0.09979552999999997,-0.330145264,0.280554192,0.119314572,-42.2432709,48.53927675,-119.49996750000001,11.815845436730807,0.4686241432651007,135.72328906227332,6.708617021276393,25.552872340425765
48600,48600.0,2.00973512,-10.4512635,-1.41397855,-1.64627835,-1.0456009,-1.130455,-43.38020335,46.1716465,-113.63899109999998,10.814354574133676,2.2570637937543294,130.10707583699852,6.637999999999797,25.53400000000023
48700,48700.0,1.1633857825,-11.760296775,0.21133424199999995,-1.314773535,-0.010482787000000021,-0.5620224075,-44.1131591,42.12951635,-105.39878799999998,11.862902233769884,1.4356592547098197,121.77806962913593,6.567382978723201,25.51512765957469
48800,48800.0,0.6416714221052632,-8.470026315789474,-0.3195720484210526,-0.2472180842105263,-0.6384156952631579,-0.7782408105263158,-43.7410735,39.40200785,-101.536789,8.500388900417184,1.0411160649411706,117.36921399639212,6.4967659574466055,25.496255319149164
48900,48900.0,0.672335817,-7.06764988,-0.92842561,0.213142398,-0.3903534,-0.267048644,-42.472356631578954,38.36204115789474,-100.66359631578949,7.161092781911746,0.5225290375802489,115.79657716100908,6.4261489361700095,25.477382978723632
49000,49000.0,3.74769289,-8.149473700000001,-3.2123734,0.211222839,-0.05628967269999999,-0.0542175295,-40.934753666666666,38.535055,-100.59611,9.53085278936262,0.2489095482598098,115.239790397446,6.3555319148934135,25.4585106382981
49100,49100.0,4.9564055,-9.927833625,-3.7944069,0.5167426900000001,-0.499118805,0.24081039250000005,-39.1551195,39.73441995,-102.599183,11.729120692664475,0.7584006334180755,116.7845452243947,6.2849148936168175,25.439638297872573
49200,49200.0,-1.6731384960000002,-8.01216412,0.06492310399999979,0.620282,0.529608172,0.24971008600000003,-37.1990205,41.002196600000005,-105.03158525,8.291029508454317,0.8652512791808201,118.72912196161847,6.2142978723402225,25.42076595744704
49300,49300.0,5.50994252,-11.8981992,-1.90046994,0.262573242,1.28082886,0.380520636,-33.9655307,42.50450160000001,-107.49977075,13.327116029804099,1.3951160428707023,120.48447638919694,6.143680851063626,25.401893617021514
49400,49400.0,1.86548154,-9.23392946,0.9438324299999998,0.552111818,-0.17986144799999998,0.5607666,-33.2549285,43.14788955,-110.5017853,9.598498020526117,0.8251582360041532,123.20132135156928,6.0730638297870305,25.38302127659598
49500,49500.0,0.7555900449999999,-9.53284245,1.336365515,0.7540847775,0.03542480479999999,-0.08419647120000001,-31.14364605,44.02992245,-113.58444250000001,9.658230184717855,0.7684985570460069,125.73806127044081,6.002446808510434,25.364148936170444
49600,49600.0,1.21037373,-9.159645,0.7345275675,0.21654663,0.30755843899999996,0.0207855225,-31.028976300000004,44.352722,-116.13044775,9.269952529118472,0.3774283670353562,128.12600948290736,5.931829787233838,25.345276595744917
49700,49700.0,1.72344744,-9.366325150000002,0.056246182600000035,0.361161038,0.38127135799999995,0.2886375545,-30.25634785,44.41520715,-117.535632,9.527000022340415,0.6000080747786735,129.2393491143026,5.861212765957243,25.32640425531938
49800,49800.0,2.61145862,-9.0695026,1.2279144510000002,0.117856598,0.310691832,0.44762802799999996,-28.44436645,44.47563155,-119.8155195,9.520264820662698,0.558306720314926,130.93112919858152,5.790595744680647,25.30753191489385
49900,49900.0,1.9344217052631576,-10.050763842105264,0.6722620652631579,0.2851835552631579,0.40610785052631576,0.19300441052631576,-26.8959809,44.258117999999996,-121.8346435,10.258418495888339,0.5331725638552965,132.38531780618118,5.71997872340405,25.288659574468323
50000,50000.0,5.04810486,-11.366926600000001,0.67844698,-0.269737248,0.07409820700000003,0.079905701,-25.66165033333333,44.051397714285706,-122.73632095238096,12.459379346777228,0.3014167416066441,132.90334647357798,5.649361702127455,25.269787234042788
50100,50100.0,0.412092597,-9.60252075,-1.1004455599999998,-1.72414243,-1.00682982,-0.94977571,-26.9632718,43.4299471,-120.7300585,9.695402396651103,2.211344216918965,131.1070753910404,5.578744680850859,25.250914893617253
50200,50200.0,0.7869018542,-11.7088179,0.3378662110000001,-1.47945407,-0.038397217000000004,-0.6182663199999999,-29.203567600000003,42.37541220000001,-115.90888999999999,11.744506032876751,1.6051344328761497,126.82065887500629,5.508127659574262,25.23204255319173
50300,50300.0,0.87704773,-8.677514500000001,-0.1487503055,-0.45009155100000003,-0.4519287,-0.84581301,-31.880492600000004,41.2033082,-113.9440896,8.723128966015274,1.0616048203477069,125.28931794013658,5.437510638297666,25.213170212766194
50400,50400.0,-0.19867095800000004,-6.90843507,-1.54373626,0.306459049,-0.48569488200000005,-0.437922669,-34.2025756,40.5371092,-114.24225039999999,7.082938971348409,0.7247403259767202,125.95393728581104,5.36689361702107,25.194297872340666
50500,50500.0,3.42638241,-8.0856779,-3.25965731,0.280578614,-0.399940497,0.130827327,-34.20837279999999,40.465088,-115.260926,9.368258910527418,0.5086394626483108,126.85725710995493,5.296276595744473,25.17542553191513
50600,50600.0,4.13207706,-10.27923585,-4.1076906000000015,0.5943999999999999,-0.5701705779999999,0.251298525,-33.6352532,40.6613158,-117.323302,11.81872923705117,0.8627626285842541,128.64470566419098,5.225659574467878,25.1565531914896
50700,50700.0,-2.269531242,-7.89641575,-0.2670272825,0.7487609740000001,1.0311339899999998,0.246836854,-34.180603000000005,40.52703800000001,-120.557556,8.280264070445918,1.3034338049873773,131.70018746344402,5.155042553191282,25.137680851064072
50800,50800.0,4.5914695000000005,-9.44246865,1.3848564000000008,0.3301025365,1.4228866649999998,0.290399174,-32.225646999999995,40.829772,-123.302306,10.63547810308275,1.5057363314619605,133.82459453274868,5.084425531914687,25.118808510638537
50900,50900.0,3.646234878,-10.4413814,0.65378265,0.4625755315,0.0016113276500000495,0.42942046850000004,-31.655884000000004,40.3857424,-126.500244,11.091053411879589,0.6353604782008089,136.51161000549266,5.01380851063809,25.099936170213013
51000,51000.0,0.664254,-9.711221,0.838607775,0.6368972795000001,0.2559425355,-0.07199554329999999,-31.2773134,39.7798158,-129.272078,9.770696064304216,0.6909050690800133,138.82366752262524,4.943191489361494,25.081063829787478
51100,51100.0,1.627918215,-9.1233142,1.018537103,0.19870071600000003,0.57434995,-0.053623961000000005,-31.298752,39.2657468,-131.77200200000001,9.323655709139029,0.6101649830950711,141.01516806485284,4.872574468084899,25.062191489361943
51200,51200.0,2.038715365,-9.42384645,0.5173713550000001,0.23801041050000002,0.296423325,0.304197694,-30.671768100000005,38.65623425,-132.9489105,9.65577428833671,0.4872191964545533,141.81157130917234,4.801957446808302,25.04331914893641
51300,51300.0,2.636665305,-9.15138565,1.604153425,0.14687881349999998,0.139884948,0.4570121735,-29.2787173,38.4560393,-134.56581,9.658192056761553,0.5004400985318737,142.98320392332263,4.731340425531706,25.02444680851088
51400,51400.0,2.35431818,-9.76646065,0.435610205,0.13425217050000002,0.47432708799999995,0.22840652050000002,-28.187332300000005,37.46658275,-136.099551,10.056229272508016,0.5434113283577778,143.94925864365754,4.66072340425511,25.00557446808535
51500,51500.0,5.463973999999999,-12.418700999999999,0.08718872,-0.3652954,-0.07887268,0.049865723,-27.400208000000003,37.2663878,-136.947098,13.567857173222759,0.3770254888490367,144.54780247588658,4.590106382978514,24.986702127659818
51600,51600.0,-1.4229431000000001,-10.910355000000001,-0.92915344,-1.7266998,-0.84799194,-1.1016846000000002,-31.1965942,38.08021575,-134.75448500000002,11.041917379102529,2.216820129713316,143.46635256650126,4.519489361701918,24.967829787234287
51700,51700.0,2.3957977,-11.003722999999999,0.052474976,-1.4028625,-0.02027893,-0.39434814,-34.24812275,39.199599299999996,-130.972063,11.26163931686504,1.457376027121914,140.93739432080332,4.448872340425322,24.948957446808752
51800,51800.0,1.4153748,-8.440735,0.033325195,-0.20870972,-0.70310974,-0.6777191,-37.48619125,39.3952945,-129.179765,8.558644970631848,0.9986121530454934,140.1598147583783,4.3782553191487255,24.930085106383228
51900,51900.0,0.8754883,-7.2029266000000005,-1.8114166,0.26533508,-0.6178894,-0.26119995,-40.322037,38.43154925,-129.1602345,7.478626977405679,0.7213982459023371,140.66051158925376,4.3076382978721295,24.91121276595769
52000,52000.0,3.1667327999999997,-8.354538,-2.8349304,0.26321409999999995,0.088378906,-0.051330565999999994,-41.6390991,37.7500925,-129.5360585,9.373544270599249,0.28236026715961154,141.20408722709197,4.2370212765955335,24.89234042553216
52100,52100.0,5.00344464,-10.062200575,-4.603408015,0.5845527655,-0.44660721649999996,-0.1300025925,-42.48008665,36.8841546,-130.710678,12.147239949854198,0.7490893563720162,142.30383442373784,4.1664042553189375,24.87346808510663
52200,52200.0,-1.555702925,-10.39177185,1.062652615,0.9952026120000002,0.11478957949999999,0.8154724084999999,-43.3038331,35.87867715,-132.3131585,10.610632388135807,1.3007211995199328,143.76853998115428,4.095787234042343,24.854595744681102
52300,52300.0,0.231867215,-7.3559212500000015,5.183668535,0.013564300625,1.6681595,-0.05650711085,-42.516023,35.466308000000005,-133.372345,9.036959371368322,1.6709663422729604,144.4082655002727,4.0251702127657465,24.83572340425557
52400,52400.0,4.694240725,-12.12229965,2.5348449884999997,0.372135929,0.207841487,0.4458183245,-41.47148120000001,35.21827735,-135.4475415,13.255314987108575,0.6227990045432039,145.9667961762752,3.954553191489151,24.816851063830036
52500,52500.0,2.40196305,-10.43348845,1.518211372,0.6064415225,0.17679138649999998,0.14979172,-41.26106285,34.55963,-136.8421145,10.823500561776653,0.649535541206689,147.046345880887,3.883936170212555,24.7979787234045
52600,52600.0,1.15117642,-8.978342775,1.0117141735,0.2512794525,0.352188106,-0.0149047849,-41.15520284210526,33.56837242105264,-138.19001842105266,9.108401543465693,0.43332434875543335,148.04414491718356,3.81331914893596,24.77910638297897
52700,52700.0,2.085514835,-9.3831538,0.4207633935,0.329153441,0.300463868,0.2760749685,-40.23056,33.190918,-139.17084,9.621418884150922,0.5245867090645341,148.62262903293748,3.742702127659365,24.76023404255344
52800,52800.0,2.14872592,-9.124987599999999,0.77181548,0.18491364,0.20214996100000002,0.38648987,-39.0121465,32.9963685,-139.681245,9.407635912580814,0.4740394627002245,148.73333665184177,3.672085106382769,24.74136170212791
52900,52900.0,2.15470427,-9.8280445,1.35959626,0.21016540399999997,0.31239776199999997,0.23958435399999997,-37.5953675,32.704925,-139.87732,10.156281259167065,0.4467939919348412,148.488290736789,3.6014680851061733,24.72248936170238
53000,53000.0,3.59816587,-10.4977109,1.0753967649999998,-0.18569336,0.40369720299999995,0.200816348,-36.0351565,33.16803,-139.77585,11.150352478042562,0.4910514382847544,148.10800626357226,3.5308510638295783,24.70361702127685
53100,53100.0,2.54172516,-11.4938205,-2.82798615,-1.46976776,-0.552696224,-0.818217469,-36.954498,33.921814000000005,-137.53204499999998,12.108861640716324,1.7708539413186215,146.3954986934633,3.4602340425529823,24.68474468085132
53200,53200.0,-1.00444033,-10.681226,0.610327145,-1.74172976,0.5191696179999999,-0.5582916099999999,-39.6636965,34.8617555,-132.20901500000002,10.773902988572695,1.9037716269448712,142.36525875922675,3.3896170212763868,24.665872340425786
53300,53300.0,1.32368161,-8.445516900000001,-0.121456905,-0.48726503,-0.252510073,-0.86572721,-41.352081,34.8091125,-128.727725,8.550890207958485,1.0277696450956653,139.61603801516765,3.3189999999997912,24.647000000000247
53400,53400.0,0.18111191,-7.62000045,-1.07770766,0.467957319,-0.641005731,-0.5376312255,-43.8789375,33.40149,-128.14102,7.69928677610326,0.9607407555740646,139.50332916282974,3.248382978723196,24.628127659574726
53500,53500.0,2.24053341,-8.275417025,-3.57324905,0.371381377,-0.4346641575,-0.1051383955,-44.99817,32.697295999999994,-128.17154,9.28887351663157,0.5833911784142954,139.72078131426306,3.1777659574466,24.609255319149195
53600,53600.0,3.843632545,-9.2081979,-2.31401365,0.229391483,-0.24292297149999997,0.1237457275,-44.9996945,32.415772499999996,-128.643035,10.245139462476985,0.3603204876235244,140.08859873631536,3.1071489361700046,24.59038297872366
53700,53700.0,2.83645627,-7.6278336000000015,-2.929917915,0.36728668600000003,-0.0330612185,-0.110137938,-45.581818,31.7092895,-128.84902499999998,8.696121338784241,0.400904432290016,140.30429628688194,3.0365319148934082,24.57151063829813
53800,53800.0,3.39963833,-14.86970415,-5.108520535,0.631629181,-0.31499328225,0.6789047235000001,-44.765472499999994,31.667328,-131.18515,16.10483518953868,0.9805804872151292,142.18451552615352,2.9659148936168136,24.5526382978726
53900,53900.0,-3.7564042,-7.08315735,2.14297096,0.35050431600000004,0.849507143,0.2052902185,-44.0979005,31.252288500000002,-134.465025,8.346529567857862,0.9592916144370512,144.92151865400743,2.8952978723402185,24.533765957447066
54000,54000.0,4.43015292,-10.26930665,0.79935301,0.5676101685,0.194480132,0.222595216,-42.3980715,30.919647,-136.502075,11.23323326289077,0.6504606884047915,146.241199365847,2.8246808510636225,24.51489361702153
54100,54100.0,2.594638835,-9.752031,-0.4117027255,0.45244903200000003,0.350107575,-0.02023162795,-42.162321999999996,29.792022499999998,-139.03503,10.099897822514992,0.5789953342922376,148.31046478250488,2.7540638297870266,24.496021276596004
54200,54200.0,1.617801645,-9.43701525,0.8924270634999999,0.178259273,0.3783927945,0.10333556949999999,-41.77703800000001,29.133606,-140.62729000000002,9.617273992023954,0.4310536971263116,149.5667539081503,2.6834468085104315,24.47714893617047
54300,54300.0,2.04714661,-9.54457255,0.3016601525,0.24808197,0.338444518,0.4373069775,-40.709685,28.755951,-142.245485,9.766464398604855,0.6062293577758846,150.72493469768716,2.612829787233836,24.458276595744945
54400,54400.0,3.163559675,-9.58730935,1.75301208,0.0585212713,0.222755428,0.32614211800000004,-39.4929506,28.62052925,-143.1726095,10.248201982313637,0.4014245911679201,151.25220568744632,2.5422127659572404,24.43940425531941
54500,54500.0,3.2258682050000003,-10.67499615,0.5690841625,-0.03528442355,0.63037643,0.19718399399999997,-38.56433604761904,27.990794857142852,-144.05895285714286,11.1697444044249,0.6636276257298508,151.73560387058725,2.4715957446806454,24.42053191489388
54600,54600.0,3.34587554,-12.87850255,-2.09787901,-0.83640671,-0.3601608225,-0.5750228924999999,-39.08218395,28.51715,-143.9318075,13.470920525897595,1.0775071721941596,151.84568937573368,2.4009787234040494,24.40165957446835
54700,54700.0,-2.881503265,-10.79758815,-0.634664895,-2.08835986,-0.35376128,-0.5871139400000001,-43.38188235,30.9125516,-140.156248,11.215603752418248,2.207860062338601,149.93896443493168,2.330361702127454,24.382787234042816
54800,54800.0,2.82604064,-9.504715,0.6349853520000001,-1.0166016,-0.0111175532,-0.78147278,-45.915146,32.558136399999995,-137.23930049999998,9.950517761673227,1.2916725578587445,148.33391086298514,2.2597446808508583,24.363914893617288
54900,54900.0,0.7181915240000001,-6.5083678800000015,-0.65644836,0.131750488,-0.7966460999999999,-0.552655028,-49.65209925,31.59645065,-135.3186055,6.588195323957901,0.9825798237398224,147.5634080605247,2.1891276595742633,24.345042553191753
55000,55000.0,1.68376462,-8.5757694,-2.69750368,0.365689084,-0.6281158459999999,0.20283508600000003,-51.08635035,30.964126500000003,-134.016572,9.152201531721632,0.7557739044103311,146.72777024516762,2.1185106382976677,24.32617021276623
55100,55100.0,4.6307922,-9.7034275,-3.3635681,0.313922122,0.1335449194,0.0381500245,-51.36787425,30.66276555,-133.98529000000002,11.266256324291511,0.35111815544157843,146.73424113727188,2.047893617021072,24.307297872340694
55200,55200.0,2.59261168,-6.01085492,-2.78896782,0.269598388,-0.184976196,-0.27014161,-52.74070749999999,29.940719450000003,-132.42065449999998,7.175500105795482,0.5042064422751437,145.64812047073514,1.9772765957444758,24.28842553191516
55300,55300.0,3.25316768,-18.095114000000002,-6.98623352,0.5550872800000001,-0.99713443,0.83218996,-51.85676585,30.3103641,-132.8138695,19.74396052393298,1.4200481783403531,145.76509672243148,1.9066595744678805,24.26955319148963
55400,55400.0,-3.97301028,-6.2083800600000005,4.02230224,0.44664306,0.649981674,0.245870972,-51.6197969,30.822601399999996,-134.3566915,8.55988108993213,0.9056675751074316,147.19505714495574,1.8360425531912845,24.250680851064097
55500,55500.0,3.973079305263158,-10.91646455263158,0.16248121105263158,0.5966973578947369,-0.11009698263157894,0.05418155315789474,-51.067657,31.07833865,-134.00397949999999,11.675247049493704,0.6293736072222758,146.73412165172718,1.7654255319146888,24.231808510638565
55600,55600.0,2.918636325,-9.78657125,0.584293355,0.4778594925,0.1150054925,-0.0012702949999999975,-51.006927399999995,30.69808955,-134.897612,10.2364113542407,0.4959143631700402,147.4503673453783,1.694808510638093,24.212936170213037
55700,55700.0,1.168174775,-9.280494500000001,0.220363615,0.3622818,0.23618317,0.17210388,-50.587007,30.72815,-135.7088455,9.358079628954464,0.4687395136061618,148.0546425343149,1.6241914893614973,24.194063829787503
55800,55800.0,2.17763135,-9.02162925,0.3107452425,0.3526916525,0.2537574725,0.48661805,-48.91494825,31.5805822,-136.09717849999998,9.287346907636499,0.6527358728212118,148.02892436568584,1.5535744680849015,24.175191489361968
55900,55900.0,1.7882689999999999,-9.65339275,0.446918495,0.1180610685,0.390636445,0.3633194,-46.88293515,32.90603575,-136.31622149999998,9.832150031443016,0.5517894927468607,147.8614185007258,1.4829574468083058,24.156319148936443
56000,56000.0,2.888111175,-9.7318,1.273815175,-0.029209137025,0.5943794250000001,0.1068573025,-44.4712064,33.8618477,-136.33888000000002,10.232637810732289,0.6067048588531294,147.35250077932218,1.41234042553171,24.13744680851091
56100,56100.0,2.4032897999999996,-12.97804675,-0.939624795,-0.544261935,-0.36809158,-0.32377624250000003,-43.196106,35.20195035000001,-134.797214,13.233638418959606,0.7333319051471316,145.86107692945725,1.3417234042551145,24.118574468085374
56200,56200.0,-1.36040495,-8.544285,-0.944709775,-1.7538718999999998,-0.610172275,-0.179164885,-43.41045263157895,37.66037821052631,-128.28546105263158,8.707304263867648,1.871544544893408,140.5703089592732,1.2711063829785183,24.09970212765985
56300,56300.0,1.42364047,-9.8431398,0.17900390900000002,-1.086265558,-0.5054016100000001,-0.270669564,-42.7758786,39.050292999999996,-122.21099640000001,9.949054276047917,1.2290976788633634,135.2414507982666,1.2004893617019228,24.080829787234315
56400,56400.0,2.25681762,-8.3826705,-0.11535339399999996,-0.1943191595,-0.682875059,-0.5718246490000001,-43.0130008,39.3972782,-118.86261200000001,8.693715515832384,0.9260274419419654,132.40360661437927,1.129872340425327,24.061957446808787
56500,56500.0,3.00787508,-9.1813739,-0.550265495,0.31007842900000004,-1.3712494,-0.9757735999999999,-44.0014648,39.6243276,-117.370606,9.694379008745226,1.711708902093124,131.46146746546472,1.0592553191487313,24.043085106383252
56600,56600.0,1.4588333,-8.05849759,-2.01143949,0.326167296,-1.28113404,-0.534432985,-44.65850860000001,40.13153079999999,-115.671996,8.43573650835943,1.427305280639234,130.32661846614272,0.9886382978721356,24.024212765957717
56700,56700.0,3.07108614,-8.8728885,-2.25302733,0.6885742220000001,-1.7751953,-0.189288328,-43.9193728,41.44989,-114.766539,9.656487735516931,1.9135445824154167,129.68599728314587,0.9180212765955398,24.005340425532193
56800,56800.0,2.05534975,-8.6127579,-2.13570558,0.7357589800000001,-1.85711668,-0.110992431,-42.481689,43.0685422,-114.463806,9.11184480984682,2.000998134152129,129.46684380562203,0.8474042553189441,23.986468085106655
56900,56900.0,-0.906998456,-16.086915599999998,-2.629275535,1.1426338,-0.722667685,0.329289245,-41.239624,45.4568492,-116.59698200000001,16.421238621176535,1.3970255493097778,131.76463567023262,0.7767872340423483,23.96759574468113
57000,57000.0,-1.3021003825,-4.35885241,4.83400033,0.7262222190000001,-0.48074189595,-0.11637039449999999,-40.412902,46.913146999999995,-117.2613536,7.200969764765087,0.9525277384848037,132.60576837086322,0.7061702127657525,23.948723404255595
57100,57100.0,0.10969695550000004,-9.91429595,-1.5749221359999999,0.98758623,-1.1399872009999998,-0.1138153073,-38.715514,48.52234,-119.230958,10.110339131760847,1.5207333000931371,134.42233705622073,0.6355531914891568,23.929851063830064
57200,57200.0,1.951975235,-8.795248249999998,1.49264752,0.8594863865000001,-1.08266676,0.38286362,-38.3679196,49.479982,-122.26165800000001,9.15101430622552,1.4353210570293795,137.36232099278632,0.564936170212561,23.910978723404533
57300,57300.0,0.8758483925,-9.78082215,0.9091812145,0.420976267,-0.413040157,0.23660583850000003,-36.9979864,50.38971,-124.174192,9.86321451169698,0.6359771514686261,139.02259472235107,0.4943191489359653,23.892106382979
57400,57400.0,1.296449285,-9.642744,0.6225982640000001,0.3774040255,-0.05373382655,0.3268341055,-35.821533,51.0537718,-126.04248,9.75571800287394,0.503013356608817,140.6288299613067,0.4237021276593696,23.873234042553467
57500,57500.0,1.14220278,-10.0481996,1.31900332,0.197586056,-0.1046508772,0.326837162,-34.2504872,51.7504884,-127.222594,10.201765903853037,0.4003497023541751,141.5519533114302,0.3530851063827738,23.854361702127942
57600,57600.0,3.05205078,-11.529724,1.5574676200000002,-0.24534912,0.45226744,0.22968139999999998,-33.205566399999995,52.69409279999999,-127.91381799999999,12.034373371598829,0.5699219440798862,142.27199183631632,0.28246808510617805,23.835489361702408
57700,57700.0,1.67970276,-11.343936,-2.44515994,-1.09266354,-0.6679656979999999,-0.64831542,-33.938904799999996,53.634338799999995,-125.2963236,11.735105472136766,1.4395606074131997,140.45611471241574,0.2118510638295823,23.81661702127688
57800,57800.0,-0.2641571132,-11.0896726,0.536819458,-1.86924438,-0.332623288,-0.85050048,-37.7322396,53.125916000000004,-116.55914240000001,11.111176626312783,2.0817035470112737,133.53796040743185,0.14123404255298655,23.797744680851345
57900,57900.0,0.9556884840000001,-9.3043182,0.026385497999999997,-0.885577396,-0.853317258,-0.8364349240000001,-40.7647706,51.7083738,-108.90716699999999,9.353888633500251,1.4903591087344041,127.26560194615723,0.07061702127639083,23.77887234042581
58000,58000.0,0.558258062,-7.35831304,-0.37416687200000004,0.123873902,-0.90530394,-0.78167724,-43.771056,50.5798342,-106.43127199999999,7.39611106644191,1.2061716449412967,125.70573656267868,0.0,23.76
58100,58100.0,1.16757202,-8.265240299999999,-2.21698912,0.683349598,-0.710580432,-0.041116332999999984,-44.905893052631576,51.35096536842105,-107.49174578947368,8.647354818993847,0.9897915355843946,127.31081014025033,0.01718918918918919,23.695783783783785
58200,58200.0,3.50263978,-9.8518798,-3.94608154,0.40957336,-0.462792968,-0.0076599122,-44.1898356,52.56423929999999,-108.210221,11.175899275807296,0.6186405906277734,128.1610268096733,0.03437837837837838,23.631567567567572
58300,58300.0,0.8855407999999999,-6.302472,-2.01347962,0.19098205640000002,0.345739746,-0.42012634200000004,-45.3871918,52.5823213,-108.4929655,6.819507776207553,0.6224222154824471,128.82433043094454,0.05156756756756758,23.567351351351352
58400,58400.0,3.3920287800000004,-15.3760163,-5.12283634,0.446432496,-0.490066536,0.81492922,-43.6858366,55.03700295,-112.19711299999999,16.649083445229856,1.0658982029242812,132.38555159450314,0.06875675675675677,23.503135135135132
58500,58500.0,-2.94685668,-7.8448152,2.03990784,0.473071292,0.542178346,0.24821472600000002,-44.06394925,56.048126,-115.55763375,8.703246471598318,0.8554103389067695,135.78185473349063,0.08594594594594596,23.43891891891892
58600,58600.0,3.2677673,-10.114755,1.03003232,0.727239992,0.01571960600000001,0.05177917519999999,-42.61611955,57.5932318,-117.8213505,10.789311452541039,0.7400510372484707,137.8949000984455,0.10313513513513514,23.374702702702702
58700,58700.0,2.57632756,-9.3265838,-0.015997312000000014,0.44174805,0.13738098399999998,-0.0472869876,-43.0297861,57.86705025000001,-121.4508814,9.679526250168326,0.4740120777869593,141.24622538290734,0.12032432432432433,23.310486486486486
58800,58800.0,1.67754818,-9.4635344,1.12340698,0.35524597,0.174444582,0.19260864,-43.21197425,58.47473000000001,-123.6286925,9.682099101806084,0.4406055748741345,143.42462963053558,0.1375135135135135,23.246270270270273
58900,58900.0,2.125617175,-9.74581125,0.21049042199999998,0.2726371795,0.311126701,0.53008115,-41.45149215,59.229355000000005,-126.4501199,9.989142012401086,0.6732154113468427,145.65755549503942,0.1547027027027027,23.18205405405405
59000,59000.0,1.9489257650000005,-9.43330275,1.743803425,0.1890159605,0.1326377875,0.1955886855,-39.37339725,60.262375,-127.4449145,9.8011355752094,0.3162376084820283,146.36956895633566,0.17189189189189188,23.11783783783784
59100,59100.0,3.901635775,-11.19532315,1.258377088,-0.33349533200000003,0.6867408779999999,0.0693603515,-39.02166433333333,60.600499047619046,-128.78490380952385,11.944497319880984,0.7778636120661035,147.58277473552832,0.18908108108108107,23.053621621621623
59200,59200.0,2.85680312,-10.3371849,-1.882998665,-1.461132045,-0.579069519,-0.95122224,-41.2374878,60.45166,-123.573608,10.896485218967237,1.8382864622882091,143.61854184316638,0.20627027027027026,22.989405405405407
59300,59300.0,-0.956795528,-11.6842756,0.81107635,-1.72302853,0.13775253380000002,-0.6422378424999999,-46.0589604,58.327026000000004,-111.92901599999999,11.778524092805462,1.8449020301888563,134.35795766093358,0.22345945945945944,22.92518918918919
59400,59400.0,0.82700347,-8.768135000000001,-0.33179475,-0.5091095,0.052688597,-0.94189453,-49.44419845,55.2461241,-104.61128275,8.845476963512981,1.07706187146333,128.2213186789291,0.24064864864864866,22.86097297297297
59500,59500.0,-0.169586185,-6.443366999999999,-1.08177945,0.183311465,-0.39951325,-0.28569794000000004,-51.7462919,52.972488500000004,-102.361374,6.540499436525447,0.5456312437569512,126.33930681549968,0.2578378378378378,22.796756756756754
59600,59600.0,2.91115575,-8.14804075,-3.0318527000000004,0.53218842,-0.0783386227,0.389686585,-51.12197980000001,54.699402,-104.06204050000001,9.178844323129066,0.6692141802903395,128.19729294544223,0.27502702702702697,22.732540540540533
59700,59700.0,7.3721542000000015,-13.2141725,-5.2578583000000005,0.119926451,-0.35317993,0.07063293500000001,-50.035628,56.385649,-106.7244725,16.035710287520196,0.5074770186364788,130.66387649116814,0.29221621621621624,22.66832432432432
59800,59800.0,-3.8776092,-7.5135725,1.3202056999999998,0.83792115,0.4196701,0.519111635,-51.3743585,56.47888100000001,-106.83029199999999,8.574550267918259,1.115717359952641,131.30921539640104,0.30940540540540545,22.604108108108104
59900,59900.0,3.9652024,-8.321022,-0.3264083499999999,0.322860725,1.2835998650000002,-0.124839785,-48.328934000000004,59.07646120000001,-109.34211709999998,9.591284488660824,1.3407494013384795,133.34732540611463,0.3265945945945947,22.53989189189189
60000,60000.0,3.2289887000000004,-11.5436175,0.6863479525,0.546569825,-0.78674317,0.81684875,-47.63504005,60.4013054,-112.05574250000001,12.21463563817924,1.25935241935451,135.91996532746606,0.3437837837837839,22.475675675675674
60100,60100.0,-0.781898525,-9.517517,0.82400513,0.66481018,0.21620941200000005,-0.0646514895,-46.70898305,61.52130085,-116.1924,9.600664521421374,0.7207488125093537,139.52546682143006,0.3609729729729731,22.411459459459454
60200,60200.0,1.8696823,-8.8854525,0.6342697350000001,0.231246945,0.4132843,0.06956482,-46.883392,61.6265865,-118.374176,9.113348600119279,0.4798736517785469,141.45094793302817,0.3781621621621623,22.347243243243238
60300,60300.0,1.60751345,-9.2296215,0.1153259251,0.43524933,0.208213805,0.449340825,-45.543442,62.67181455,-121.03851440000001,9.370487832406816,0.6606440660442854,143.70950091299008,0.3953513513513515,22.28302702702702
60400,60400.0,3.54645765,-9.65692675,0.7541595440000001,0.150823978,0.13503113,0.407369233,-42.821502,63.61175649999999,-123.16696425,10.32100396599964,0.458603820686265,145.0871198067793,0.4125405405405407,22.218810810810805
60500,60500.0,2.237427505,-10.2278861,0.3749206475,0.0397720329,0.5441001925,0.016261291469999998,-41.77880684210526,63.962755789473675,-124.53533263157897,10.483767388290397,0.5488908820245872,146.10193382060228,0.42972972972973,22.154594594594588
60600,60600.0,4.00812381,-12.939858325,-1.3003097479999999,-0.7012260579999999,-0.12334823585000003,-0.5078567515,-42.3786927,63.49418655,-122.6671615,13.629285372565956,0.8847348921543682,144.4815429679739,0.4469189189189192,22.09037837837837
60700,60700.0,-3.222789,-11.32975425,-0.23769912800000004,-1.9905205,-0.408621215,-0.8942306499999999,-47.6380921,60.8566287,-112.161405,11.81708524235502,2.2356909085634338,136.2110246955752,0.4641081081081084,22.026162162162155
60800,60800.0,2.48953478,-9.8898796,0.759783933,-1.176980545,-0.27402496600000004,-0.6093826325,-49.8013311,57.627562100000006,-102.964786,10.230861207220741,1.3596763701633343,128.07438297866986,0.4812972972972976,21.96194594594594
60900,60900.0,0.18403702,-7.024442985,-0.711029038,0.03396682760000001,-0.46258240149999996,-0.6120353705,-52.6673889,55.158538799999995,-99.712674,7.071905886408199,0.7745740983147513,125.53490723735584,0.4984864864864868,21.89772972972972
61000,61000.0,2.01626507,-8.13146065,-2.0143142650000003,0.39609985600000003,-0.6890571475,0.13551330849999998,-52.996368700000005,55.589600600000004,-100.397951,8.622223330399821,0.8096849157610183,126.40659078950331,0.5156756756756761,21.833513513513502
61100,61100.0,4.1952224450000015,-9.8290629,-3.84354932,0.2605430635,0.006561279549999999,0.2110366835,-51.4091488,56.948547,-101.49689000000001,11.3619363488865,0.3354117351040449,127.23074543061091,0.5328648648648652,21.769297297297285
61200,61200.0,-0.27565311999999986,-7.25846856,-1.3526794800000004,0.52185364,0.5402648916,0.19197387600000002,-50.24444570000001,58.698731,-102.481536,7.615405896912542,0.8312999748812491,128.34557979224604,0.5500540540540544,21.705081081081076
61300,61300.0,6.495877,-10.705884,-0.3638793600000003,0.35588989200000004,0.5044677959999999,0.410772706,-46.747437100000006,61.7787172,-105.7513418,12.908826835565762,1.093050830096162,131.09340269570902,0.5672432432432436,21.640864864864856
61400,61400.0,1.7191985440000002,-9.658663800000001,0.053677359999999896,0.5953613440000001,-0.16792907999999998,0.34366149799999995,-47.85568189999999,62.9051209,-110.36850049999998,9.959301302692063,0.7095319924576481,135.7520124313675,0.5844324324324328,21.57664864864864
61500,61500.0,1.46876528,-9.535595599999999,0.3172699004,0.65820618,0.0934875476,-0.0023376466,-46.834107,64.292602,-112.98233,9.658624133592948,0.6648992538336781,138.17374850245812,0.601621621621622,21.512432432432426
61600,61600.0,1.17116396,-9.0483792,1.013983152,0.216760258,0.34936523,-0.0551696782,-47.408447,64.469607,-115.759279,9.192731833099758,0.4156333037508355,140.72716950106985,0.6188108108108112,21.448216216216206
61700,61700.0,1.63348998,-9.2212372,0.451110836,0.291757202,0.37173156799999996,0.27314148,-46.925355,64.892579,-117.889711,9.37637648738615,0.5467765383219905,142.5168177632639,0.6360000000000005,21.38399999999999
61800,61800.0,2.6582122800000003,-8.9684144,1.22922364,0.205682372,0.25988159,0.40950011799999997,-44.5457455,66.25442249999999,-119.6582815,9.435596194183264,0.5270273140811471,143.84780648627168,0.6531891891891897,21.319783783783773
61900,61900.0,1.70956494,-9.68966035,0.495223996,0.181664278,0.29668731649999996,0.3470230145,-42.635727,67.2458625,-121.73271100000001,9.855805978660436,0.4920334129443884,145.4604486809989,0.6703783783783789,21.255567567567557
62000,62000.0,4.21186757,-10.685951800000002,1.2775337,0.0385414122,0.448534395,0.3008354225,-40.304565999999994,68.019867,-123.13576,11.559264751077034,0.5425882367290645,146.33387333835464,0.6875675675675681,21.19135135135134
62100,62100.0,3.030804465,-12.58527595,-2.420254535,-1.125678266,-0.6484718315,-0.81236341,-40.67573575,67.86613249999999,-119.93179375,13.17117480278201,1.5370245308372856,143.6812990916348,0.7047567567567573,21.127135135135127
62200,62200.0,-1.891078965,-11.52147035,1.1521323925,-1.841703005,0.18067626550000004,-0.616889175,-45.53527875,64.61716,-106.7924475,11.791508569015615,1.9701001218865497,132.86683196113214,0.7219459459459465,21.062918918918907
62300,62300.0,1.5599884250000002,-8.942916225000003,-0.09219131700000004,-0.8060989390000001,-0.62289963,-0.812734225,-47.7851865,61.161804,-98.55270250000001,9.104494480981078,1.3082197781679892,125.44763411294502,0.7391351351351357,20.99870270270269
