Unnamed: 0,st,ax,ay,az,gx,gy,gz,mx,my,mz,AccTotal,GyrTotal,MagTotal,lat,lng
25000,25000,3.86225588,-8.7507786,0.84687194,-0.02718811,0.277563474,0.210720824,-42.5686644,38.3145143,-136.042789,9.602782476,0.349568408,147.6066925,33.19,32.63
25100,25100,4.171347,-9.033774,1.01350708,-0.039321899,0.23474426,0.317465212,-41.4324944,38.8314808,-136.551968,10.00192891,0.397088454,147.8885173,33.13277586,32.6147069
25200,25200,4.11723325,-9.931427,1.578487425,-0.114959718,0.019393921,0.1816864,-40.398255,39.259491,-136.370085,10.86788233,0.218741732,147.5470456,33.07555172,32.59941379
25300,25300,3.59141155,-9.958061,-0.397331238,-0.363162998,-0.255973815,-0.030830384,-40.5537413,39.6366882,-135.799253,10.59456117,0.44702508,147.1636164,33.01832759,32.58412069
25400,25400,3.54202655,-9.2266275,-1.20896915,-1.1751671,-0.394718173,-0.571453108,-42.05409429,40.22609143,-132.0656929,9.958063084,1.36582673,144.3195817,32.96110345,32.56882759
25500,25500,2.6663514,-10.9405745,-1.020729075,-1.435085275,-0.323348998,-0.82764815,-45.01800629,39.70489471,-126.450021,11.3078113,1.689434477,139.9742985,32.90387931,32.55353448
25600,25600,4.724163,-8.114822,-0.920764923,-0.377017978,-0.612571715,-0.791423775,-47.8408815,38.9202125,-123.4024055,9.43550107,1.077874487,137.9558462,32.84665517,32.53824138
25700,25700,2.67675631,-7.81787873,-1.81188661,0.468487548,-0.768954467,-0.614752194,-49.776077,37.197875,-121.9898223,8.465879224,1.090897514,136.9046422,32.78943103,32.52294828
25800,25800,3.47881467,-7.66524965,-3.0302994,0.309118653,-0.158665465,-0.069865418,-51.0677325,36.732484,-122.179034,8.948851492,0.357532862,137.422533,32.7322069,32.50765517
25900,25900,5.845485,-7.7406616,-3.26661075,0.309123222,-0.150566103,0.073933409,-50.1914975,36.8938445,-122.4880225,10.23757599,0.35598314,137.4180994,32.67498276,32.49236207
26000,26000,5.08952041,-6.25805968,-3.24134821,0.282063296,-0.44170532,-0.367828364,-50.75225875,36.5203855,-122.702025,8.699223759,0.646513095,137.7147678,32.61775862,32.47706897
26100,26100,3.481700075,-14.31316975,-4.258824185,0.75211258,0.073405456,0.99629515,-49.40452625,37.2802725,-125.1522055,15.38120703,1.256721567,139.6202743,32.56053448,32.46177586
26200,26200,-1.269777655,-5.554279355,0.881472043,0.408031462,0.775740816,0.307815555,-47.75772,37.657928,-127.204516,5.926257503,0.966212832,140.9974472,32.50331034,32.44648276
26300,26300,5.072702695,-9.33508625,-0.2869026,0.51179123,0.103552248,0.271756743,-45.3257756,38.3702087,-129.725498,10.75316521,0.592200933,142.6726308,32.44608621,32.43118966
26400,26400,4.80724724,-8.81087365,0.582971963,0.473173525,0.414929961,-0.045373537,-44.8533632,37.9660041,-131.277311,10.0646025,0.634794485,143.8297792,32.38886207,32.41589655
26500,26500,2.2476013,-9.448209,0.167877202,0.136016844,0.321670532,0.29402466,-44.3232722,37.4974072,-132.909548,9.741072059,0.456849497,145.0366295,32.33163793,32.40060345
26600,26600,3.79065856,-8.8187806,0.923486336,0.255325318,0.249868772,0.38286438,-42.9333495,37.4932856,-134.004056,9.645686303,0.525523832,145.6232663,32.27441379,32.38531034
26700,26700,3.47176202,-8.9090426,1.64198606,0.14901123,0.218545534,0.354525762,-41.62533342,37.09564205,-134.7987121,9.702191256,0.443484134,145.8749499,32.21718966,32.37001724
26800,26800,3.78994138,-9.3775786,0.980468752,-0.05039978,0.40433044,0.36262512,-40.25993375,37.38937325,-135.437775,10.16374973,0.546635378,146.1585586,32.15996552,32.35472414
26900,26900,5.57889402,-10.1844266,1.80671082,-0.270913704,0.006344604,0.19666138,-39.1620635,37.548445,-135.4343425,11.75305486,0.386565391,145.8973174,32.10274138,32.33943103
27000,27000,2.0472076,-10.4489932,-1.34765322,-0.736642472,-0.93854368,-0.77358396,-41.24794,36.9377135,-133.7635,10.73531957,1.437428427,144.7710631,32.04551724,32.32413793
27100,27100,1.056484972,-10.7746002,-0.125885008,-1.47572632,-0.009420774,-0.853689556,-44.4419865,36.4635475,-129.349515,10.87559446,1.708444576,141.5488845,31.9882931,32.30884483
27200,27200,3.9221069,-9.2236296,-0.601614376,-0.66016234,-0.225454708,-1.03585816,-47.125245,34.668349,-126.517485,10.0412896,1.25629838,139.3898621,31.93106897,32.29355172
27300,27300,2.271897905,-7.09782957,-1.82925188,0.164460755,-0.7998436,-0.70914307,-50.20332325,32.10029575,-125.3692638,7.685478606,1.083856575,138.810771,31.87384483,32.27825862
27400,27400,4.65401298,-7.06412822,-1.79782717,0.037644958,-0.166276553,0.046823884,-51.19667125,31.53572075,-124.68872,8.657549263,0.180157095,138.4300739,31.81662069,32.26296552
27500,27500,5.25322333,-7.464676785,-3.766153735,0.402811431,-0.292404178,0.208003236,-51.22528,31.7276,-125.1709,9.87435556,0.547203328,138.9187681,31.75939655,32.24767241
27600,27600,6.230058365,-7.568049685,-4.205371965,0.35849991,-0.229869078,-0.076323701,-51.359558,31.9496155,-127.045825,10.67312068,0.437714658,140.7097389,31.70217241,32.23237931
27700,27700,4.34564364,-15.3840362,-5.8153535,0.644518269,0.113467408,1.009403233,-50.3829955,32.975388,-130.168155,17.15935775,1.247993246,143.4212349,31.64494828,32.21708621
27800,27800,-2.365603615,-6.0890212,0.075815581,0.607606495,0.387286375,0.416203311,-48.9902495,34.02099575,-133.0249775,6.595597687,0.869273416,145.7846071,31.58772414,32.2017931
27900,27900,3.549033365,-9.2067603,-0.253201292,0.617462935,0.444761664,0.273202518,-47.07248068,34.82071747,-136.1440568,9.995156655,0.815158257,148.2010068,31.5305,32.1865
28000,28000,3.23832243,-9.049456725,0.696812445,0.314605713,0.538721471,0.136788177,-46.2854002,34.9017336,-138.9154,9.643297599,0.639204314,150.5256441,31.47327586,32.1712069
28100,28100,2.666224685,-9.0431701,0.726261905,0.213085178,0.444121549,0.421269997,-44.876708,35.5474846,-141.20606,9.459486311,0.648645409,152.3702964,31.41605172,32.15591379
28200,28200,3.502868663,-8.770503737,1.234707458,0.146812842,0.388275949,0.414410237,-43.1918324,36.6412356,-142.365722,9.526059457,0.587157539,153.2192163,31.35882759,32.14062069
28300,28300,3.61146545,-9.587555,1.01554107,0.01499939,0.28704834,0.3694458,-41.09375,37.7313232,-143.28308,10.29789948,0.468158682,153.7609194,31.30160345,32.12532759
28400,28400,5.3568344,-10.5141145,0.82819365,-0.31256866,0.089439392,0.31032562,-39.3081668,39.3890392,-143.502194,11.83042153,0.474909372,153.9139902,31.24437931,32.11003448
28500,28500,2.4963608,-10.6589585,-1.01354215,-1.5860901,-1.0551834,-1.43937685,-42.5942992,41.262512,-138.821412,11.03732336,2.388418527,150.9593823,31.18715517,32.09474138
28600,28600,2.93808745,-9.24877925,0.383476255,-1.48595425,0.365341185,-0.9088745,-47.387086,42.2857668,-132.320552,9.762844012,1.784425989,146.7735455,31.12993103,32.07944828
28700,28700,2.33475495,-8.1642,-0.637649525,-0.28166962,-1.3454742,-0.915794365,-51.4373784,41.4373776,-127.68158,8.520649275,1.655763795,143.7552313,31.0727069,32.06415517
28800,28800,1.312303268,-7.647558126,-1.385304495,0.458434257,0.104350041,-0.352412977,-54.081422,40.1058954,-127.0288082,7.884876965,0.589288867,143.7693263,31.01548276,32.04886207
28900,28900,4.20480275,-7.76736138,-2.660454585,0.360462958,-0.323241431,0.035321046,-54.980774,39.8852534,-127.507018,9.233678388,0.487414234,144.4707847,30.95825862,32.03356897
29000,29000,5.93431705,-8.51698375,-3.244639565,0.334906761,-0.087181091,0.152825164,-54.5373532,40.773316,-127.572936,10.87811063,0.380674459,144.608641,30.90103448,32.01827586
29100,29100,3.331630775,-6.77676165,-2.526915015,0.376075745,-0.010588072,-0.017834472,-54.9459842,40.5102536,-127.4276732,8.010895868,0.447102347,144.5613296,30.84381034,32.00298276
29200,29200,6.89450832,-11.97792355,-4.13019255,0.207597353,0.17609556,0.644067398,-52.7391058,42.04925565,-129.298626,14.57950573,0.824874647,145.8345645,30.78658621,31.98768966
29300,29300,0.996210475,-9.1410323,-0.002587885,0.62545471,0.128531645,0.770725254,-50.9168234,42.44209315,-131.93909,9.349865081,1.00396762,147.6543698,30.72936207,31.97239655
29400,29400,1.99339749,-9.2869644,0.846869682,0.564308165,0.434748853,0.122094724,-48.72741695,42.9286192,-134.606403,9.540968391,0.725249187,149.4528049,30.67213793,31.95710345
29500,29500,2.41447756,-9.0256376,0.92061462,0.30923157,0.319110102,0.021740723,-48.4455866,42.2093197,-137.1985565,9.394748042,0.446677947,151.499411,30.61491379,31.94181034
29600,29600,3.05445252,-9.1295408,0.73626404,0.128347778,0.40710449,0.257382198,-47.09808395,42.4593349,-137.819515,9.657414751,0.499178764,151.7077711,30.55768966,31.92651724
29700,29700,3.21941222,-8.9712922,1.01518554,0.1215332,0.332321164,0.287210078,-45.9631339,42.7558135,-138.953173,9.586389454,0.456191284,152.4751712,30.50046552,31.91122414
29800,29800,3.01925354,-9.3203586,1.09083558,0.041207886,0.306750486,0.341745002,-44.1111754,42.97866835,-139.356541,9.857785063,0.461485525,152.3589165,30.44324138,31.89593103
29900,29900,4.62312622,-9.4688022,0.937854024,-0.132852174,0.51384278,0.311062622,-42.30125345,43.8452146,-139.630736,10.57975112,0.616803689,152.3435263,30.38601724,31.88063793
30000,30000,4.866623,-12.9403928,-1.270556644,-0.574087532,-0.714199824,-0.320635988,-42.16476485,44.09538175,-137.5745355,13.90599054,0.97553909,150.4959914,30.3287931,31.86534483
30100,30100,-0.951227294,-10.67238163,-1.946054532,-1.828912811,-0.375580635,-1.163243358,-46.71974195,43.561477,-130.487591,10.89656203,2.208963473,145.2846025,30.27156897,31.85005172
30200,30200,3.9008553,-9.6020953,-0.552723679,-0.99997712,-0.427799992,-0.83484116,-49.72076395,42.2055054,-124.7599015,10.3796418,1.378579338,140.7789091,30.21434483,31.83475862
30300,30300,2.083895085,-7.4944206,-0.98181916,0.304486844,-0.52803725,-0.547858434,-51.87599155,40.2069841,-122.99896,7.841204274,0.82751877,139.4149212,30.15712069,31.81946552
30400,30400,2.604882045,-8.7097743,-3.57557611,0.584070575,-0.754779809,-0.175012206,-53.0751797,39.2419432,-123.8500201,9.789403603,0.97621868,140.3415386,30.09989655,31.80417241
30500,30500,4.48090905,-8.47077545,-2.18771593,0.052558136,0.211248782,-0.325375364,-53.777848,38.1353013,-123.2138085,9.835091152,0.395232837,139.7426839,30.04267241,31.78887931
30600,30600,5.2783637,-7.499267675,-2.8626427,0.248669438,-0.470143129,-0.14603882,-54.25933845,37.69989,-122.5041181,9.607246494,0.556977502,139.1855507,29.98544828,31.77358621
30700,30700,3.126336705,-7.783588405,-2.37230983,0.736131296,-0.044786835,0.37541046,-54.0200815,37.59674145,-124.1436795,8.723450493,0.830982905,140.5111012,29.92822414,31.7582931
30800,30800,7.8569796,-13.4775392,-5.4334763,0.08339081,0.049061586,0.368908691,-51.5983586,38.70445175,-126.4345546,16.54710808,0.404440845,141.937103,29.871,31.743
30900,30900,-1.149057001,-7.3492143,0.648745726,0.628701781,0.144622808,0.561186229,-50.8470155,38.6807264,-128.353885,7.540268893,0.855708229,143.374921,29.81377586,31.7277069
31000,31000,2.51575163,-9.3731495,0.30242464,0.667257689,0.20385437,0.350057984,-48.5253907,39.7573856,-130.936283,9.756091975,0.78556403,145.1885791,29.75655172,31.71241379
31100,31100,3.15703431,-9.1515749,0.432078551,0.278230288,0.528434752,-0.091387938,-48.0340575,39.033815,-132.928779,9.699231367,0.605191386,146.6321321,29.69932759,31.69712069
31200,31200,3.00920106,-9.3706438,0.61463775,0.197483826,0.476026919,0.285816953,-47.892609,39.3937679,-135.126647,9.862616434,0.58963071,148.6767754,29.64210345,31.68182759
31300,31300,3.0494186,-9.0623899,0.68226776,0.128984069,0.365559388,0.386596678,-45.5328367,39.2309558,-135.863493,9.587504121,0.547570399,148.5638926,29.58487931,31.66653448
31400,31400,3.1000023,-9.211963625,0.894634238,0.086372378,0.304893493,0.362251283,-44.165496,39.9186697,-136.76529,9.761576413,0.481584938,149.1604968,29.52765517,31.65124138
31500,31500,4.086113125,-9.223038,0.846752175,-0.054771422,0.47745896,0.388084413,-42.2305287,40.4324345,-137.712706,10.12503535,0.618430514,149.6096029,29.47043103,31.63594828
31600,31600,5.092872625,-13.10433588,0.07342912,-0.432937623,-0.681015013,-0.163990022,-42.1272282,40.7571406,-136.336213,14.0854871,0.828403833,148.4029554,29.4132069,31.62065517
31700,31700,-0.312038413,-9.0350875,-1.653991675,-1.827899975,-0.440261835,-1.098762475,-45.951387,40.8110043,-130.703128,9.20014222,2.179667738,144.4315573,29.35598276,31.60536207
31800,31800,3.84009935,-10.1735305,-0.322814943,-1.221496625,-0.425880436,-0.81539535,-48.65176526,39.51705211,-125.1391763,10.89014051,1.548780521,139.9588676,29.29875862,31.59006897
31900,31900,1.859798425,-7.8269157,-0.88964464,0.03204346,-0.552116398,-0.76133345,-51.3136287,37.6057435,-122.4302676,8.094277009,0.948223933,137.9726839,29.24153448,31.57477586
32000,32000,1.8298798,-7.719478625,-2.235179925,0.60169983,-0.381134033,-0.22257233,-53.076326,36.265107,-122.96875,8.253009516,0.750816616,138.7572313,29.18431034,31.55948276
32100,32100,4.1406923,-8.4895718,-3.0101898,0.192901616,0.02062683,-0.005319214,-53.1446842,36.0095217,-123.1053164,9.913943795,0.212841532,138.8379635,29.12708621,31.54418966
32200,32200,6.2904509,-8.03036488,-3.40809938,0.126638791,-0.47259827,-0.350671384,-53.7568662,35.7949842,-122.778016,10.75777052,0.602048241,138.7282385,29.06986207,31.52889655
32300,32300,2.42740784,-6.9307037,-0.7826172,0.624972528,0.015087891,0.264831542,-54.0567013,34.9453736,-123.259732,7.406814951,0.682441718,139.0549209,29.01263793,31.51360345
32400,32400,5.87290648,-11.3336426,-4.85779124,0.091918948,0.053649902,0.245446772,-52.5045779,36.2997437,-125.267944,13.69901243,0.38825689,140.5932772,28.95541379,31.49831034
32500,32500,1.44769592,-9.4666505,-0.659323122,0.565960692,0.070477294,0.848809816,-50.9568784,36.782837,-127.254945,9.7174886,1.026242179,141.9277609,28.89818966,31.48301724
32600,32600,1.700293,-9.2686496,0.576803574,0.65884705,0.136102294,0.072015382,-49.695433,37.2418202,-130.014956,9.444283215,0.677502485,144.0850175,28.84096552,31.46772414
32700,32700,1.794415158,-8.938978895,0.717617629,0.171597132,0.541169841,-0.050500971,-49.26147479,36.74115611,-132.1927537,9.15443231,0.570444136,145.7790961,28.78374138,31.45243103
32800,32800,3.38263249,-9.31067055,0.495587165,0.185282901,0.493766019,0.26871568,-48.32545819,36.86995757,-133.6826162,9.919680154,0.592435408,146.8529879,28.72651724,31.43713793
32900,32900,3.8153877,-8.774662775,0.929598255,0.190774539,0.382275386,0.360437777,-46.84700035,37.4235538,-135.2963975,9.614718271,0.559219874,147.987473,28.6692931,31.42184483
33000,33000,3.421413445,-9.20938445,1.125259415,0.140010836,0.169763181,0.315224456,-45.3001415,37.8888698,-136.7964895,9.888636162,0.38470593,148.9998826,28.61206897,31.40655172
33100,33100,3.40388337,-9.1053045,0.730210879,-0.034420777,0.438372039,0.244491576,-44.03678785,38.3526619,-137.3481765,9.748488026,0.50382106,149.2471138,28.55484483,31.39125862
33200,33200,5.1286079,-11.06854215,1.38891909,-0.207738494,-0.258478557,0.152024076,-43.234253,38.6615745,-137.522814,12.27782167,0.378083139,149.2529632,28.49762069,31.37596552
33300,33300,2.568664565,-9.87318525,-1.74204257,-1.50123975,-0.602134694,-0.998726639,-45.531235,38.6587532,-133.7047605,10.35224777,1.908884098,146.439734,28.44039655,31.36067241
33400,33400,1.71500552,-10.7780641,0.471575932,-1.63083191,-0.087924194,-0.848687742,-49.0055075,38.07716365,-127.1835333,10.9286148,1.840937095,141.5171068,28.38317241,31.34537931
33500,33500,2.09174343,-8.06950375,-1.42055972,-0.630975356,-0.317384348,-0.80437318,-51.5042115,36.852111,-123.0771605,8.457160053,1.071685413,138.4152798,28.32594828,31.33008621
33600,33600,2.46367951,-7.46198276,-1.56671904,0.424378968,-0.476321408,-0.320960995,-53.27415335,35.7041163,-122.3603822,8.013112078,0.714846201,138.1484423,28.26872414,31.3147931
33700,33700,4.06468505,-7.97804546,-3.31927945,0.273867794,-0.060649109,0.024188233,-53.578186,35.424805,-122.79053,9.55107934,0.286127922,138.575081,28.2115,31.2995
33800,33800,5.7376251,-8.3999069,-3.21549374,0.227737426,-0.353063969,0.078842161,-53.46908425,35.53039545,-123.290862,10.66917195,0.428842448,139.0035863,28.15427586,31.2842069
33900,33900,2.91809388,-5.8625322,-2.70002439,0.366532896,-0.111894228,-0.144334415,-53.7680815,35.1548015,-123.847958,7.086275725,0.425547663,139.5177174,28.09705172,31.26891379
34000,34000,5.50431367,-16.3320143,-6.32340089,0.72350771,-0.270402519,0.598052981,-51.95846585,36.1688994,-126.3662745,18.39447018,0.988384793,141.3376013,28.03982759,31.25362069
34100,34100,-2.43820652,-5.92645885,2.18007971,0.322328951,0.191870881,0.366410064,-51.3975515,36.37519885,-128.922959,6.776151452,0.547136072,143.4782546,27.98260345,31.23832759
34200,34200,4.2989611,-10.69595045,-0.95488281,0.60142667,0.257644649,0.284380344,-49.56817675,36.77688775,-132.1286075,11.57314112,0.714062729,145.8340454,27.92537931,31.22303448
34300,34300,4.24024263,-9.1649193,0.323679358,0.490850067,0.436294557,0.054012299,-48.6803435,36.96609525,-134.449389,10.10547405,0.660402312,147.6919359,27.86815517,31.20774138
34400,34400,2.69400253,-9.3244938,0.784085823,0.216392516,0.308090973,0.153460689,-47.63320945,36.85737585,-135.905379,9.737900472,0.407057865,148.6528749,27.81093103,31.19244828
34500,34500,2.65096283,-9.513985,0.523899842,0.175591275,0.379678343,0.364377599,-46.74043238,37.04833971,-137.5167095,9.890484278,0.554777792,149.8936116,27.7537069,31.17715517
34600,34600,3.54945597,-9.1132069,1.644497665,0.132656859,0.23405686,0.28853302,-44.499207,37.142944,-138.414,9.91741711,0.394628017,150.0606981,27.69648276,31.16186207
34700,34700,3.15368192,-9.4805893,0.63546065,0.039289093,0.38617172,0.243690494,-43.536377,37.712097,-140.05127,10.01162349,0.458435775,151.4330763,27.63925862,31.14656897
34800,34800,4.64958646,-9.96212235,1.48636097,-0.197780611,0.295731356,0.235755919,-41.986084,38.938904,-140.92407,11.09386554,0.427369772,152.1139803,27.58203448,31.13127586
34900,34900,3.51737059,-11.9165175,-1.47239528,-1.079133574,-0.88762052,-0.804272464,-43.33954,39.501953,-138.0249,12.51238327,1.614276149,149.9653061,27.52481034,31.11598276
35000,35000,-0.197114562,-9.7351612,-0.27421723,-1.8644424,0.148143004,-0.836544804,-47.314453,40.53955,-131.70929,9.748432647,2.050217352,145.7032932,27.46758621,31.10068966
35100,35100,3.03463135,-8.95734235,-0.959253695,-0.761888096,-0.277754215,-0.723149885,-49.63684,40.44342,-128.28674,9.506081803,1.086935906,143.3770336,27.41036207,31.08539655
35200,35200,2.342652155,-7.639145635,-1.267512475,0.414896387,-0.413316342,-0.497418212,-52.459717,39.51111,-127.54364,8.090595192,0.769658264,143.4591573,27.35313793,31.07010345
35300,35300,3.6443741,-7.815901965,-3.35716249,0.184331509,-0.315888216,-0.157323455,-53.633118,39.141846,-128.1372,9.255930229,0.398180086,144.3181814,27.29591379,31.05481034
35400,35400,3.9927368,-8.198914,-2.7642975,0.19822693,-0.28553772,0.15638733,-53.63922,39.712524,-128.78723,9.529190868,0.381159681,145.0530975,27.23868966,31.03951724
35500,35500,6.028951245,-8.05711995,-3.4594596,0.20568848,-0.246432489,-0.210863491,-54.026794,39.712524,-128.13873,10.64122917,0.384239774,144.6219664,27.18146552,31.02422414
35600,35600,0.96083605,-8.0732247,-0.886710353,0.752799992,0.074736786,0.479911039,-53.936768,39.622498,-129.57458,8.179347429,0.896055435,145.8378863,27.12424138,31.00893103
35700,35700,4.44033886,-8.68391725,-0.256741329,0.058406831,1.172492265,-0.041854859,-52.197266,40.663147,-131.72302,9.809866409,1.174721143,147.4075985,27.06701724,30.99363793
35800,35800,4.03079985,-9.40044705,0.376658624,0.572030636,0.502339176,0.650247196,-50.7762147,41.32362385,-135.115055,10.24181811,1.002562238,150.1397875,27.0097931,30.97834483
35900,35900,1.83352353,-9.0286286,1.054687514,0.51311951,-0.032527161,0.388293455,-49.3238075,41.4151018,-137.2742445,9.279349686,0.645889074,151.6320465,26.95256897,30.96305172
36000,36000,3.1597946,-9.7658066,-0.026419068,0.284407048,0.530247496,-0.069338989,-48.34137,41.055298,-139.82391,10.26546122,0.606674607,153.5355052,26.89534483,30.94775862
36100,36100,3.16361698,-9.0492216,0.91475066,0.126428223,0.429051207,0.253015133,-47.08252,41.056824,-141.77551,9.630214661,0.514951488,154.9281179,26.83812069,30.93246552
36200,36200,2.544960015,-9.4272599,0.3103302,0.316903691,0.192074588,0.410723119,-45.5307,40.771484,-143.88885,9.770787973,0.553501388,156.3309301,26.78089655,30.91717241
36300,36300,3.12064819,-9.42097425,0.988965625,0.27961426,0.054078674,0.413059237,-43.8797,41.71295,-144.59839,9.973932435,0.50217583,156.7612601,26.72367241,30.90187931
36400,36400,3.08365098,-9.07687045,0.807602692,0.033968354,0.449120336,0.29593811,-42.12799,41.70685,-145.607,9.621341483,0.539333672,157.2120457,26.66644828,30.88658621
36500,36500,4.767325505,-10.715823,2.077497065,-0.033358002,-0.010798646,0.174176786,-40.47699,42.362976,-146.46912,11.91442748,0.217162374,157.753642,26.60922414,30.8712931
36600,36600,1.8238312,-11.3467526,-2.136422735,-0.8791336,-0.65859068,-0.741201019,-43.492126,42.938232,-143.84003,11.68938212,1.333468881,156.2856712,26.552,30.856
36700,36700,-0.56217269,-10.106739,0.114365391,-2.15169605,-0.137467191,-0.892787909,-48.049927,44.918823,-135.93292,10.12878276,2.333793691,151.0107774,26.49477586,30.8407069
36800,36800,2.95945508,-8.864567625,-1.110562095,-1.01739277,-0.17901077,-0.78786011,-51.42975,44.72351,-129.76532,9.413583734,1.300215395,146.5750654,26.43755172,30.82541379
36900,36900,2.481940475,-6.80135664,-1.43892749,0.349180607,-0.508757016,-0.515425085,-53.948975,43.119812,-127.89917,7.382018866,0.808166892,145.3547652,26.38032759,30.81012069
37000,37000,3.38778381,-9.1388813,-3.199804705,0.246266175,-0.64362181,-0.282870478,-55.99518,41.90216,-128.28827,10.26117142,0.74551548,146.1134197,26.32310345,30.79482759
37100,37100,3.38341056,-7.77634266,-2.9515228,0.204190064,-0.016027831,0.017904663,-56.57959,41.52832,-128.58124,8.981609504,0.209949233,146.4888619,26.26587931,30.77953448
37200,37200,5.4766572,-7.74497376,-3.23308716,0.305181886,-0.151516722,-0.170864864,-57.066345,41.436768,-128.40424,10.02238357,0.383787854,146.4964925,26.20865517,30.76424138
37300,37300,2.763791,-8.26307992,-2.20070494,0.698260514,0.015090942,0.326409912,-57.2473147,40.4007722,-129.540484,8.99494425,0.775793646,147.2760559,26.15143103,30.74894828
37400,37400,5.5671602,-10.794235,-3.418157956,0.00881958,0.190634153,0.186428832,-55.60836815,41.1418147,-132.4773365,12.70127814,0.402989014,149.4497206,26.0942069,30.73365517
37500,37500,1.69861146,-8.9856446,-0.10458068,0.622204592,0.095190428,0.81343995,-53.56430075,41.43325925,-135.8863855,9.250692783,1.02914071,151.8255603,26.03698276,30.71836207
37600,37600,0.73135376,-9.0912416,0.27466126,0.5599945,0.30099487,0.155322264,-52.2322097,40.8673099,-138.146973,9.131240628,0.656641685,153.2414544,25.97975862,30.70306897
37700,37700,2.49324954,-9.082611,0.73649596,0.225079346,0.624627684,-0.044940185,-51.2773895,40.5832655,-140.5366515,9.450806705,0.665816573,155.0062324,25.92253448,30.68777586
37800,37800,2.811441,-9.278226,0.514556884,0.212292484,0.443740848,0.255880736,-50.1001737,40.13534525,-142.6277125,9.709312299,0.555438236,156.4082499,25.86531034,30.67248276
37900,37900,3.0215836,-9.08596775,0.426567075,0.205947875,0.282520298,0.392082215,-48.4249881,40.1163486,-143.627087,9.584954952,0.526028578,156.7898494,25.80808621,30.65718966
38000,38000,2.731891625,-9.21884525,1.1370468,0.104747775,0.270530698,0.320709228,-46.87156685,40.48553475,-144.646605,9.682170228,0.433361352,157.3489242,25.75086207,30.64189655
38100,38100,3.288841275,-9.35322175,0.933246598,-0.000179291,0.640182495,0.297538758,-44.61430171,40.88999495,-145.2554543,9.958830884,0.70627855,157.3584254,25.69363793,30.62660345
38200,38200,3.86045825,-13.16090025,0.231449128,-0.198589323,-0.29911041,-0.02949524,-43.3520506,40.9263612,-145.21789,13.73003849,0.36623629,156.9797537,25.63641379,30.61131034
38300,38300,1.06342315,-8.636459,-0.886951475,-1.77410505,0.003158569,-1.035911575,-46.2971483,41.962279,-140.081175,8.753051382,2.055244874,153.385679,25.57918966,30.59601724
38400,38400,3.0703659,-11.20543325,0.255390168,-1.33281705,-0.416824335,-0.802349095,-49.9798584,42.0413212,-133.448336,11.62180497,1.614933256,148.5735886,25.52196552,30.58072414
38500,38500,1.8565094,-8.2742171,-0.72790834,-0.302026366,-0.285539243,-0.77965852,-53.101655,40.2725218,-129.789128,8.512562881,0.893603809,145.9002759,25.46474138,30.56543103
38600,38600,2.14728548,-7.88324282,-2.13031925,0.289207459,-0.5932907,-0.44090271,-55.0782775,38.555603,-128.73459,8.446839465,0.795162384,145.2336004,25.40751724,30.55013793
38700,38700,4.3777283,-8.2737355,-2.60101619,0.025123596,-0.224276734,-0.21389313,-56.4709474,37.3675535,-127.835543,9.717681241,0.311516194,144.6624847,25.3502931,30.53484483
38800,38800,4.3784424,-8.095961,-2.9846893,0.336820985,-0.488572685,0.047738648,-56.3528455,36.708528,-126.692502,9.67795284,0.595412526,143.4369513,25.29306897,30.51955172
38900,38900,4.2491562,-7.6113754,-3.07830358,0.300177006,-0.389720153,0.038682556,-56.340027,36.298982,-126.4118965,9.244975853,0.493639118,143.0796426,25.23584483,30.50425862
39000,39000,1.49175113,-10.8324157,-0.955120838,0.98620454,0.636450191,0.713836661,-55.4809568,36.6328432,-127.960202,11.00328426,1.375420565,144.2014112,25.17862069,30.48896552
39100,39100,0.810838421,-6.132652658,2.712503505,0.246109816,1.393093753,-0.022301122,-54.2733766,36.6061404,-130.180816,6.946106707,1.418191333,145.7143806,25.12139655,30.47367241
39200,39200,5.519153595,-10.31228185,0.686343372,0.613098161,0.443962097,0.458070369,-52.3664852,37.1076964,-132.625882,11.73223674,0.892716602,147.33929,25.06417241,30.45837931
39300,39300,2.431180585,-9.89359315,0.336608885,0.556259909,0.003042604,0.267124174,-51.789397,36.790466,-134.390416,10.20338779,0.625027029,148.648808,25.00694828,30.44308621
39400,39400,2.086772915,-8.7066132,0.734523764,0.210535429,0.502550509,-0.072159576,-51.385651,36.3978577,-136.05347,8.987962052,0.550580587,149.9195845,24.94972414,30.4277931
39500,39500,2.94952461,-9.1734107,0.586800395,0.141394804,0.366352078,0.301054385,-49.9322493,36.0795589,-136.679688,9.654079734,0.495240208,149.9210591,24.8925,30.4125
39600,39600,2.98232118,-9.248661275,0.986632525,0.25340729,0.218389128,0.297113801,-48.597717,36.4199825,-138.57819,9.767935706,0.448290794,151.3012547,24.83527586,30.3972069
39700,39700,2.434828175,-9.41062065,0.864408103,0.169306188,0.187868499,0.301371001,-47.5085448,36.8600463,-138.827513,9.759579762,0.3954746,151.2905019,24.77805172,30.38191379
39800,39800,3.51078188,-9.034259,1.32642826,0.038009644,0.490621952,0.372848512,-45.694428,36.9738773,-139.124756,9.783007991,0.617767154,151.0326254,24.72082759,30.36662069
39900,39900,3.9865082,-11.8002714,0.78558046,-0.134558108,-0.117007446,0.097372437,-44.02128484,37.42105553,-139.8206242,12.48469618,0.242230703,151.287864,24.66360345,30.35132759
40000,40000,1.86165464,-10.1777252,-1.64860224,-1.36579896,-0.425723268,-0.937423684,-45.97457925,37.64518765,-136.3402565,10.48601408,1.717505145,148.7271481,24.60637931,30.33603448
40100,40100,1.28250124,-10.6187412,0.05989685,-1.65661314,-0.197753908,-0.763363636,-48.7109377,37.7890785,-129.7932415,10.70180651,1.83544893,143.6912146,24.54915517,30.32074138
40200,40200,2.06588128,-8.662912,-0.611193844,-0.718753068,0.066857908,-0.8230133,-51.3008114,36.7713927,-125.2585605,8.927108886,1.09818715,140.2628065,24.49193103,30.30544828
40300,40300,2.29932248,-7.4203218,-1.62298586,0.444088744,-0.475997918,-0.421627808,-52.4904632,35.38444475,-124.809036,7.93658543,0.778029601,139.9451165,24.4347069,30.29015517
40400,40400,3.94628677,-8.68188605,-3.198193355,0.133670809,-0.433234408,-0.244626616,-53.6775986,34.3324281,-124.294739,10.06175292,0.516381527,139.6754192,24.37748276,30.27486207
40500,40500,4.06043473,-8.51034475,-2.56313248,0.141928863,-0.394667814,-0.032370759,-53.85734505,33.98429895,-124.4081884,9.772999559,0.420744719,139.7603197,24.32025862,30.25956897
40600,40600,4.298531985,-7.61449053,-3.282586645,0.224330141,-0.201586912,-0.133631131,-54.1127774,33.3762356,-123.6852295,9.341567795,0.330679365,139.0691077,24.26303448,30.24427586
40700,40700,3.551243595,-7.89299635,-2.653567465,0.561478417,-0.066831209,0.354261018,-53.6592861,33.84864805,-124.060289,9.058345857,0.674704576,139.3414896,24.20581034,30.22898276
40800,40800,5.685557625,-13.9982072,-5.90376132,0.308217616,-0.186676787,0.412689987,-51.81549105,34.9607088,-127.4591056,16.278409,0.623156505,141.9609953,24.14858621,30.21368966
40900,40900,-0.904538728,-7.22657173,0.776242052,0.353489688,0.258290867,0.468618785,-51.2802129,35.29060385,-129.0372475,7.347921999,0.641817604,143.2682483,24.09136207,30.19839655
41000,41000,2.60314484,-10.12284185,-0.147974393,0.498844153,0.099027256,0.277617643,-49.4074243,36.00875835,-132.13234,10.47979372,0.587645584,145.5908005,24.03413793,30.18310345
41100,41100,3.59230805,-9.2763135,0.349357605,0.346832275,0.339241025,0.12815857,-48.3587646,36.17027255,-133.858027,9.957156911,0.505116744,146.8497293,23.97691379,30.16781034
41200,41200,2.68131255,-9.0973435,0.75517273,0.170524595,0.314208985,0.188346865,-47.58316832,36.35189663,-135.68541,9.518012176,0.40658086,148.3110005,23.91968966,30.15251724
41300,41300,2.287468,-9.4444965,0.541496265,0.253616335,0.259346005,0.343872075,-46.20391865,36.74072265,-137.1258535,9.732741813,0.500607946,149.2923577,23.86246552,30.13722414
41400,41400,2.7429657,-9.06262225,1.13046265,0.20301819,0.142173768,0.39873505,-44.8137666,37.03414925,-137.9963695,9.535973993,0.469859922,149.7426181,23.80524138,30.12193103
41500,41500,2.90576935,-9.452881,1.00057985,0.060272218,0.330184935,0.34227753,-42.87986715,37.14927685,-138.8063025,9.940097581,0.480225729,149.9532093,23.74801724,30.10663793
41600,41600,4.06156925,-10.2920535,1.2645416,-0.125076295,0.26148224,0.17663574,-41.14280655,37.8025809,-139.033205,11.13659311,0.346846837,149.8399549,23.6907931,30.09134483
41700,41700,2.247368605,-11.6275885,-1.67134631,-0.91811523,-0.634517678,-0.711054998,-42.3523705,38.4338372,-136.5709645,11.96907608,1.328384363,148.0627437,23.63356897,30.07605172
41800,41800,-0.837452698,-10.3100647,-0.821699528,-1.76845854,-0.001960756,-0.98850402,-45.6973266,38.8421632,-131.048888,10.39859055,2.031048642,144.1212255,23.57634483,30.06075862
41900,41900,2.975086175,-9.55037815,-1.691703805,-0.901975998,-0.275625611,-0.78072358,-47.82200874,39.18224121,-126.0051527,10.15418889,1.229322591,140.355152,23.51912069,30.04546552
42000,42000,2.0230873,-7.557392885,-1.46688084,0.223526765,-0.54348907,-0.394513704,-49.5809932,38.1539916,-124.472656,7.965689371,0.711461408,139.3106461,23.46189655,30.03017241
42100,42100,3.23988192,-7.497296235,-2.1767105,0.269066621,-0.122064209,-0.155786896,-50.2404788,37.8149426,-123.998718,8.457981495,0.33898251,139.0316037,23.40467241,30.01487931
42200,42200,4.349410315,-8.6255683,-3.367402695,0.207392882,-0.341827389,-0.008090973,-50.4769892,37.8567492,-124.439698,10.2345021,0.401236865,139.5217309,23.34744828,29.99958621
42300,42300,4.78808898,-7.792624,-3.03293152,0.249575808,-0.466204842,-0.32745056,-51.1801144,37.709045,-124.542238,9.638623833,0.631212639,139.8292354,23.29022414,29.9842931
42400,42400,2.0567871,-7.7433045,-1.51021424,0.73959962,-0.32260438,0.419937136,-51.1059574,37.787781,-125.120239,8.171951433,0.916189994,140.3383761,23.233,29.969
42500,42500,4.88194884,-11.3367522,-3.67481384,0.256182856,0.20533753,0.04347229,-49.4091794,39.1323852,-127.467348,12.92249833,0.592249857,142.1990142,23.17577586,29.9537069
42600,42600,0.32290348,-9.48125,0.859799192,0.49288024,0.336154176,0.82750856,-48.1958008,39.8919664,-129.498596,9.702075964,1.027173603,143.8199766,23.11855172,29.93841379
42700,42700,1.21473998,-9.141754,0.833938572,0.58939516,0.296102904,0.167044066,-46.4739988,40.082703,-132.298276,9.272122259,0.687020867,145.8400479,23.06132759,29.92312069
42800,42800,2.20019836,-9.0536468,0.620141604,0.221456902,0.57136536,-0.046435546,-46.291808,39.9029554,-134.787288,9.34889328,0.617399942,147.9961551,23.00410345,29.90782759
42900,42900,2.973608086,-9.503528571,0.855218062,0.197267076,0.455530794,0.177137104,-45.5184936,40.1119998,-135.804138,9.99519333,0.529617192,148.7403618,22.94687931,29.89253448
43000,43000,3.21151124,-9.03808375,0.881588739,0.121418762,0.267179107,0.286723328,-44.1220092,40.4510492,-137.256776,9.634985102,0.410669595,149.7414472,22.88965517,29.87724138
43100,43100,2.66466758,-9.46658505,1.40280303,0.074867248,0.141109464,0.28517685,-43.072205,40.8447268,-137.712098,9.935983976,0.328294622,149.9604943,22.83243103,29.86194828
43200,43200,2.7918633,-9.26678775,0.599729165,-0.00965271,0.357086941,0.260201265,-42.1606446,41.0879518,-138.351136,9.697677435,0.442444555,150.3557797,22.7752069,29.84665517
43300,43300,4.153385175,-10.6826662,1.186188525,-0.33291321,0.277198791,0.295144657,-40.4608152,41.925659,-137.496952,11.52437232,0.532784474,149.3327143,22.71798276,29.83136207
43400,43400,2.13483432,-11.3510034,-1.380573245,-1.322124495,-0.72000579,-1.02775723,-42.7728268,42.4206548,-134.759214,11.64151471,1.830817727,147.6125249,22.66075862,29.81606897
43500,43500,0.752544434,-9.76538085,-0.067594145,-1.838233915,0.376639557,-0.686986544,-46.6162108,42.6190188,-127.1514896,9.848526864,2.000292723,141.9757571,22.60353448,29.80077586
43600,43600,2.3102111,-8.4366579,-1.04071347,-0.597309888,-0.41070099,-0.708921813,-49.11842325,41.2666335,-122.1015925,8.810342898,1.018002888,137.9295955,22.54631034,29.78548276
43700,43700,2.15650482,-7.95757903,-1.8713806,0.51930389,-0.42785034,-0.51600037,-51.2306215,39.5027165,-121.9581625,8.457716569,0.849265052,138.0538594,22.48908621,29.77018966
43800,43800,2.63270876,-8.3380144,-3.37134861,0.299960324,-0.398130799,-0.254484558,-52.5142665,38.32359325,-121.4138038,9.372315054,0.56253628,137.7236115,22.43186207,29.75489655
43900,43900,4.60218212,-8.1966444,-2.85576476,0.101817322,-0.280953975,-0.102890014,-52.75230375,37.89634675,-120.7595813,9.825113903,0.316076642,137.1201183,22.37463793,29.73960345
44000,44000,4.15363311,-7.38548429,-2.64136203,0.238389587,-0.297146604,-0.18023834,-53.2375335,37.0960235,-121.204377,8.88000122,0.423615621,137.4803758,22.31741379,29.72431034
44100,44100,2.70644686,-8.9584714,-2.82714846,0.78486787,0.082409668,0.416523746,-52.6809695,36.88392675,-122.29309,9.796090255,0.900104762,138.1717664,22.26018966,29.70901724
44200,44200,5.508326474,-10.838334,-3.396559868,0.006206312,0.244911589,0.055863231,-50.331116,38.0859375,-124.185563,12.66060846,0.519227325,139.3048639,22.20296552,29.69372414
44300,44300,1.51234055,-9.17695225,-0.176464077,0.69756699,0.238304141,0.805141463,-49.02992275,38.1622315,-127.0568825,9.422002627,1.097152151,141.4353727,22.14574138,29.67843103
44400,44400,1.032001525,-9.449291125,0.393348701,0.6222038,0.12353134,0.21577454,-47.2850785,38.114929,-129.34151,9.516408514,0.671937792,142.8913645,22.08851724,29.66313793
44500,44500,2.122264825,-8.94979875,0.840175625,0.207279205,0.62766647,-0.069713591,-46.341325,38.02108775,-130.8830275,9.242173082,0.665155338,143.956637,22.0312931,29.64784483
44600,44600,2.50444415,-9.0075605,0.617809295,0.21873474,0.425792695,0.344406125,-45.030594,37.947846,-132.31697,9.369835603,0.591819916,144.8299106,21.97406897,29.63255172
44700,44700,3.113162975,-9.1518055,0.899425508,0.192630765,0.208213805,0.46184921,-42.81501725,38.246155,-133.1481975,9.711257714,0.542437621,144.9978575,21.91684483,29.61725862
44800,44800,2.424787789,-9.507478158,0.990753953,0.132457531,0.233538176,0.338721028,-41.08619725,38.75770525,-133.2920075,9.862121546,0.433748835,144.7655172,21.85962069,29.60196552
44900,44900,3.21940918,-9.057245,1.01661989,-0.120285035,0.577972408,0.206878666,-39.23454275,38.8908375,-133.9084625,9.666908528,0.625905726,144.8562458,21.80239655,29.58667241
45000,45000,3.9146233,-12.730244,0.62200165,-0.210838318,-0.454906475,-0.032157898,-38.3541105,39.49775725,-132.9914125,13.34872754,0.510546648,143.9369674,21.74517241,29.57137931
45100,45100,1.1744614,-9.415165,-1.344840975,-1.59408185,-0.088726045,-1.023124675,-40.373612,39.3215185,-127.863695,9.589426732,1.898791539,139.733874,21.68794828,29.55608621
45200,45200,2.268310575,-11.16563425,0.122211453,-1.463584875,-0.319625853,-0.701412185,-43.0183415,38.551712,-121.545795,11.40271538,1.658510204,134.5747659,21.63072414,29.5407931
45300,45300,2.115680625,-8.2554855,-0.842655175,-0.281143193,-0.111362455,-0.649486538,-44.59533725,37.145996,-117.2004675,8.564259492,0.724369575,130.784251,21.5735,29.5255
45400,45400,2.370365125,-8.733124,-2.4270211,0.497299195,-0.74147034,-0.33309936,-45.4833985,36.3644406,-117.011565,9.374059043,0.95626228,130.7012585,21.51627586,29.5102069
45500,45500,2.605104174,-7.923583079,-2.5430908,0.086601659,-0.010191266,-0.194584895,-46.02082926,36.21946653,-115.5751279,8.720335815,0.237226116,129.5661486,21.45905172,29.49491379
45600,45600,4.6951965,-8.6056948,-3.03484498,0.175854496,-0.311529542,0.113565066,-45.6569665,36.859894,-115.3278325,10.26381275,0.378011854,129.3975517,21.40182759,29.47962069
45700,45700,3.64486392,-6.97859192,-2.1650268,0.263211062,0.057269286,-0.294424444,-46.19216925,36.626435,-115.3068525,8.168110991,0.403476023,129.5024636,21.34460345,29.46432759
45800,45800,3.29913938,-11.0496918,-1.71181337,1.0623657,0.112234501,0.587612894,-46.04187,37.913513,-117.492676,11.66251185,1.221692137,131.7642485,21.28737931,29.44903448
45900,45900,0.28842468,-6.09513246,3.22958372,0.070822143,0.99342038,0.115267943,-44.976425,38.667679,-118.100738,7.126340011,1.004027169,132.1584991,21.23015517,29.43374138
46000,46000,5.814191415,-11.5898291,1.04475477,0.536284637,0.402313231,0.47996217,-43.4364325,40.301132,-120.217895,13.01257874,0.829594797,134.0271552,21.17293103,29.41844828
46100,46100,2.14980012,-10.18065975,0.147233582,0.55183715,0.095775607,0.207685849,-43.11142075,41.2773135,-122.044375,10.41129677,0.601630801,135.8574359,21.1157069,29.40315517
46200,46200,1.729499795,-9.161979525,0.804077914,0.19055939,0.607897946,-0.007819367,-43.492509,41.66870075,-124.1947175,9.359712832,0.637763243,138.0299685,21.05848276,29.38786207
46300,46300,2.67712018,-9.08776705,0.573400114,0.15881348,0.43943634,0.262546543,-42.79785,42.14477525,-125.980758,9.491247033,0.536115804,139.5671718,21.00125862,29.37256897
46400,46400,2.91983029,-9.4926235,1.307871215,0.148750307,0.163747408,0.285175325,-41.71333325,42.92678875,-127.585602,10.01809673,0.360969156,140.9284113,20.94403448,29.35727586
46500,46500,2.5061737,-9.4240299,0.825386025,0.090373993,0.299138642,0.34936371,-40.74314629,43.76089929,-128.3804757,9.786628022,0.470265508,141.6212654,20.88681034,29.34198276
46600,46600,3.635226465,-8.73917115,0.753434007,-0.109362027,0.637567901,0.312873076,-39.67857375,44.529343,-128.72009,9.497846724,0.718870324,141.8667391,20.82958621,29.32668966
46700,46700,4.46433171,-13.0413109,0.73656081,-0.296054079,-0.474992388,0.016091157,-38.7477885,44.8997495,-127.80037,13.81893805,0.568326614,140.8914773,20.77236207,29.31139655
46800,46800,-1.047245244,-9.037831053,-1.883681463,-1.845336916,-0.365209475,-1.286991363,-42.33888337,44.44154316,-122.3536437,9.31397744,2.279818528,136.8885058,20.71513793,29.29610345
46900,46900,2.928959126,-11.27036495,0.401467575,-1.458655863,-0.086214565,-0.674856888,-45.6179811,42.5784314,-114.9967978,11.652366,1.610198981,130.8371924,20.65791379,29.28081034
47000,47000,1.677536,-7.370529,-1.3373566,-0.058502197,-0.13319397,-0.51260376,-47.8527824,40.7397465,-111.761322,7.676415013,0.532846841,128.219933,20.60068966,29.26551724
47100,47100,2.349121,-8.689728,-2.0412598,0.56147766,-0.32707214,-0.18875122,-48.9355482,40.8088685,-113.101502,9.230194134,0.676653804,129.8153044,20.54346552,29.25022414
47200,47200,3.660240905,-8.44150585,-3.215073355,-0.065848542,0.124539945,-0.376981355,-49.8234559,39.996338,-112.2276308,9.746734518,0.405224505,129.1400756,20.48624138,29.23493103
47300,47300,4.43716507,-7.54775335,-2.53314671,0.147740174,-0.54673691,-0.029665375,-50.7075502,39.7714231,-111.621858,9.115081165,0.567381906,128.8894943,20.42901724,29.21963793
47400,47400,3.78073269,-7.29523026,-2.79016422,0.351524352,-0.181457522,-0.019273376,-50.9320064,39.6025089,-111.6426083,8.678516683,0.39751024,128.9440173,20.3717931,29.20434483
47500,47500,2.27979889,-9.9156771,-2.19364927,0.88425138,0.437358094,0.669850157,-50.0986478,41.30584625,-113.4847295,10.4083522,1.193191316,130.7484807,20.31456897,29.18905172
47600,47600,2.00686193,-6.95572511,1.33217465,0.181710815,1.18804782,-0.012130737,-49.32037375,42.248002,-115.6350701,7.426430111,1.20263767,132.6231143,20.25734483,29.17375862
47700,47700,4.4075325,-10.14427105,0.759485623,0.634610755,0.442623905,0.57834322,-48.191528,43.33831875,-118.4612281,11.09365563,0.968879051,135.0325969,20.20012069,29.15846552
47800,47800,2.412924175,-9.73701295,0.70788881,0.519616678,0.165344243,0.266857914,-47.7253726,44.2531576,-120.5686973,10.05882621,0.607874766,137.0141443,20.14289655,29.14317241
47900,47900,1.77193605,-8.8757562,0.509173584,0.237053683,0.453649895,-0.00169754,-47.84011775,44.2297366,-122.5344845,9.066091906,0.513119243,138.7791323,20.08567241,29.12787931
48000,48000,2.26346368,-9.2186138,0.540119163,0.241316223,0.226329804,0.335142522,-47.29850825,44.7341918,-123.8379661,9.50836938,0.471539915,139.907672,20.02844828,29.11258621
48100,48100,2.72141416,-9.5458984,0.869854732,0.285583488,-0.053515625,0.43335571,-45.70327875,45.5531314,-124.8622155,9.967159519,0.521901332,140.5507557,19.97122414,29.0972931
48200,48200,2.54352724,-9.4271362,1.0106384,0.110235598,0.322094724,0.290399168,-44.57321205,45.96259975,-125.806124,9.817870455,0.448003723,141.1614283,19.914,29.082
48300,48300,2.76307678,-9.0874022,0.64982605,-0.06170044,0.669161992,0.221157838,-43.9046481,46.49345395,-126.9548055,9.521116075,0.707589987,142.1506297,19.85677586,29.0667069
48400,48400,4.43973094,-11.113617,2.09496454,-0.221694944,-0.164086916,0.137637326,-43.3191679,46.86675985,-126.550217,12.15638561,0.345658558,141.7321701,19.79955172,29.05141379
48500,48500,1.42064212,-10.386026,-2.50812072,-1.10736692,-0.548229966,-0.835372928,-45.49087545,46.009063,-123.2041185,10.77951656,1.509394226,139.1614429,19.74232759,29.03612069
48600,48600,0.371029658,-10.0177948,-0.087347409,-1.76037294,0.172955324,-0.85454714,-50.1209262,43.2599637,-116.2564833,10.04649955,1.96475524,133.7888819,19.68510345,29.02082759
48700,48700,2.387725825,-8.6627885,-0.82828903,-0.67022707,-0.216289518,-0.6420212,-52.50823895,40.52932675,-111.4408118,9.024179089,0.958022847,129.6882116,19.62787931,29.00553448
48800,48800,1.57608415,-7.499511775,-1.37686535,0.54870225,-0.481281283,-0.395412435,-54.4167329,39.00970425,-111.101302,7.786225326,0.83099738,129.7167914,19.57065517,28.99024138
48900,48900,3.2900391,-9.203884375,-2.90765765,0.173461915,-0.676223753,-0.48623276,-55.28640795,38.12293955,-110.6243134,10.19873827,0.852630254,129.4130043,19.51343103,28.97494828
49000,49000,2.80820085,-7.7000274,-2.31000515,0.049621583,-0.062625884,0.023761749,-56.3085186,37.14675885,-110.1967608,8.51949522,0.094274104,129.2047958,19.4562069,28.95965517
49100,49100,4.6113357,-7.7996826,-2.82116695,0.396102905,-0.180332185,-0.014057159,-55.91173647,37.65772747,-110.6507134,9.491003537,0.439646016,129.5678848,19.39898276,28.94436207
49200,49200,2.568485175,-9.7000805,-1.8808479,0.640850088,0.097702028,0.358791348,-55.9347532,38.1753538,-112.0333856,10.2239606,0.743905754,130.9106677,19.34175862,28.92906897
49300,49300,2.377964816,-7.0024124,-0.02294005,0.195988465,1.035824599,-0.118238829,-55.5645754,39.376222,-114.20929,7.711253898,1.064183922,132.9728898,19.28453448,28.91377586
49400,49400,3.69442291,-10.1741275,0.051759338,0.62124635,0.367692556,0.8422058,-54.5172118,40.8413704,-117.241212,10.88168326,1.115600118,135.5944186,19.22731034,28.89848276
49500,49500,1.65539704,-9.29342475,0.98502347,0.567024238,0.063760376,0.197187803,-53.7951662,41.662902,-119.801025,9.499883056,0.60418316,137.7753794,19.17008621,28.88318966
49600,49600,1.76145478,-9.2168134,0.613912958,0.290368653,0.31420746,-0.070193484,-53.769226,41.6165158,-122.128906,9.407715459,0.435210079,139.7805711,19.11286207,28.86789655
49700,49700,2.16511841,-9.4930983,0.91619111,0.168713377,0.354270924,0.277616882,-53.4866332,41.7166132,-123.830566,9.77998747,0.481275757,141.1917487,19.05563793,28.85260345
49800,49800,2.23419646,-9.5441042,1.08318174,0.225820924,0.22877655,0.298597715,-52.2729488,42.5329592,-125.894774,9.861958499,0.439046407,142.7971991,18.99841379,28.83731034
49900,49900,2.33583379,-9.7213885,0.870332339,0.129519648,0.369712826,0.275704955,-51.4630126,42.9693606,-127.2369396,10.03621416,0.479378506,143.8198054,18.94118966,28.82201724
50000,50000,2.112392435,-9.165758,0.538433845,-0.056958008,0.414080055,0.229843908,-50.8670046,43.2183836,-128.63251,9.422586082,0.477272556,144.9194281,18.88396552,28.80672414
50100,50100,3.366716025,-9.90712385,1.577883165,-0.05546875,0.435867305,0.374077607,-49.3539428,44.04602,-129.462586,10.58206863,0.577797561,145.3838432,18.82674138,28.79143103
50200,50200,3.52059325,-12.24649255,-0.063822159,-0.135892488,-0.753661355,-0.121219636,-49.190978,43.4750368,-129.007876,12.76940367,0.778871398,144.7511029,18.76951724,28.77613793
50300,50300,1.32218551,-8.21783205,-1.03173521,-1.813899235,0.079431916,-0.934649644,-51.4453126,42.277527,-124.924924,8.389960031,2.043120409,141.5652933,18.7122931,28.76084483
50400,50400,1.779357895,-12.04933803,0.316319261,-1.53021086,-0.406179035,-0.86860883,-54.1720582,39.9389648,-119.271544,12.19283384,1.808244867,136.9534232,18.65506897,28.74555172
50500,50500,1.576799926,-7.234244126,-1.14386872,-0.369279559,-0.118232328,-0.580600932,-56.5554816,37.0584102,-115.689088,7.493165817,0.704958146,133.9994947,18.59784483,28.73025862
50600,50600,0.9992645,-8.2144836,-1.15755312,0.5661682,-0.486230472,-0.020233155,-56.982726,36.3064576,-116.233826,8.357223041,0.747226882,134.4451869,18.54062069,28.71496552
50700,50700,5.3119416,-9.2978548,-3.64848028,0.076788328,-0.508596808,-0.517495728,-56.7849734,36.1898798,-115.789796,11.31279327,0.755639267,133.946406,18.48339655,28.69967241
50800,50800,2.95173338,-7.58767388,-2.90556034,-0.04848633,-0.43935547,-0.064761353,-58.007507,34.776306,-115.944212,8.656909506,0.454299119,134.2287042,18.42617241,28.68437931
50900,50900,3.80215148,-7.23453378,-2.33956904,0.6011139,-0.247393796,-0.007662964,-57.65350375,35.02792365,-115.3388215,8.506901565,0.655774958,133.6187066,18.36894828,28.66908621
51000,51000,2.65245972,-13.865991,-2.86127318,0.944552624,0.163793942,0.54691466,-56.84722985,36.3029479,-118.940962,14.42836807,1.123472225,136.7353405,18.31172414,28.6537931
51100,51100,-1.61903384,-5.3292297,3.93156124,0.304544066,0.993423488,0.048370363,-56.7461402,36.77146815,-121.0836013,6.944842999,1.09696651,138.6851501,18.2545,28.6385
51200,51200,5.49227756,-11.22117545,0.335589599,0.564840699,-0.0131958,0.464833844,-54.782563,38.5739897,-123.3933257,12.51815674,0.752224338,140.4105289,18.19727586,28.6232069
51300,51300,2.366292565,-9.61688405,0.647915665,0.605478677,-0.084728242,0.173651119,-53.9507293,38.87878425,-125.146791,9.932052015,0.644279633,141.7179162,18.14005172,28.60791379
51400,51400,0.888472013,-9.1485744,0.138130951,0.227950287,0.294660948,-0.006113433,-54.11445625,38.6159515,-127.5447097,9.193826773,0.380171341,143.8305276,18.08282759,28.59262069
51500,51500,1.976636505,-9.3826119,0.9147476,0.310667419,0.248908996,0.351863862,-53.1763455,38.94332975,-128.944016,9.632385958,0.532623426,144.8135146,18.02560345,28.57732759
51600,51600,2.784919755,-9.52458545,0.882244885,0.241049199,0.35858307,0.383232876,-51.5693669,39.7441103,-131.3152315,9.966102215,0.577780696,146.569874,17.96837931,28.56203448
51700,51700,1.93138887,-9.49866565,0.7354851,0.151782992,0.417009735,0.245451353,-50.1934812,40.09803765,-132.7121745,9.722377197,0.508214971,147.4441505,17.91115517,28.54674138
51800,51800,3.388455837,-9.271203,0.835123174,-0.046057452,0.720919963,0.242842826,-48.6965939,40.38085885,-134.6295925,9.909240015,0.762975409,148.7521642,17.85393103,28.53144828
51900,51900,3.3109894,-12.7891995,0.450515748,-0.30617523,-0.245048525,-0.222312925,-48.1594852,40.47561635,-135.334476,13.24442547,0.457140734,149.2415816,17.7967069,28.51615517
52000,52000,-0.473045365,-9.8108065,-1.49178315,-1.7698517,0.130455017,-0.983444225,-50.6557464,40.147171,-131.574629,9.96020801,2.032949873,146.5942192,17.73948276,28.50086207
52100,52100,2.5645981,-11.1413955,0.28531646,-1.54667665,-0.02667236,-0.47051239,-52.0988462,39.83139135,-126.5486165,11.44600748,1.630176116,142.5322459,17.68225862,28.48556897
52200,52200,1.9971695,-7.88946525,-0.88006592,-0.322151185,-0.033065796,-0.69582367,-53.8411715,38.64829985,-123.350598,8.186318128,0.77572368,140.0283746,17.62503448,28.47027586
52300,52300,2.40119165,-8.189934,-2.5679779,0.302619935,-0.65464785,-0.3970108,-55.2558137,37.2997284,-123.7961572,8.913564012,0.826831789,140.6058648,17.56781034,28.45498276
52400,52400,2.8339386,-8.295883,-2.7236023,0.104484558,-0.078346251,-0.07424164,-55.7283777,36.764526,-123.2515733,9.18122018,0.157055133,140.172242,17.51058621,28.43968966
52500,52500,4.257860684,-8.339920579,-2.905118411,0.291747241,-0.465952019,-0.000821566,-55.3684239,36.901016,-123.3213035,9.804603905,0.550606289,140.1268643,17.45336207,28.42439655
52600,52600,3.420759535,-7.44348,-3.563901475,0.313543706,-0.20734253,-0.042283631,-55.3408046,36.66198705,-123.8990787,8.933741792,0.384596526,140.5621753,17.39613793,28.40910345
52700,52700,2.89859073,-16.436345,-5.617469665,0.488562768,-0.037432858,0.645243095,-54.1053775,37.435913,-127.28653,17.73965407,0.893591363,143.285589,17.33891379,28.39381034
52800,52800,-2.2628281,-6.1329634,1.469839485,0.46225128,0.33115158,0.33614961,-52.851867,37.8181465,-129.725645,6.812707603,0.822470455,145.0940432,17.28168966,28.37851724
52900,52900,4.1632651,-10.58784783,-1.3335823,0.563344563,-0.0126091,0.294930267,-50.6706235,38.8069155,-131.48804,11.52027514,0.639959066,146.1595794,17.22446552,28.36322414
53000,53000,3.33115543,-10.0535186,0.701789857,0.493944557,0.181956484,0.0322937,-49.81159405,38.67452553,-133.6477947,10.61528088,0.53600108,147.7793383,17.16724138,28.34793103
53100,53100,0.94078751,-8.76963285,0.66538925,0.208563234,0.400980374,0.0408638,-49.469757,38.294983,-135.260775,8.847871744,0.457952735,149.0277234,17.11001724,28.33263793
53200,53200,1.89517514,-9.4927432,0.96203918,0.34203492,0.190426638,0.412472532,-47.8683475,38.38806,-136.90643,9.728496954,0.569764909,150.0279794,17.0527931,28.31734483
53300,53300,2.39029538,-9.4872374,0.843759164,0.168188472,0.21705322,0.269094846,-46.362305,38.7145985,-137.995145,9.820485872,0.386731127,150.6351914,16.99556897,28.30205172
53400,53400,2.23970028,-9.4276216,0.548550416,0.068902588,0.449078368,0.194104002,-45.004272,39.043426,-139.240265,9.706251221,0.494490607,151.451861,16.93834483,28.28675862
53500,53500,2.85142214,-9.0330624,0.894036848,0.013726807,0.36640625,0.392663576,-42.9084775,39.459228,-139.55231,9.516222892,0.537857085,151.2382933,16.88112069,28.27146552
53600,53600,3.68580014,-11.852228,1.16913144,-0.131787112,-0.127661132,0.403958122,-40.5693065,39.872742,-139.87122,12.46809029,0.467062136,150.9956104,16.82389655,28.25617241
53700,53700,0.735424813,-10.7638827,-2.63537674,-1.191624465,-0.342956537,-0.822112268,-41.488647,40.6257635,-137.62741,11.10836292,1.504968879,149.376673,16.76667241,28.24087931
53800,53800,0.397959898,-10.5252459,0.076654818,-1.72659762,0.398954767,-0.943811035,-44.3862925,41.137695,-131.571965,10.54744546,2.008336798,144.8239711,16.70944828,28.22558621
53900,53900,1.77474438,-9.05316415,-0.95709912,-0.664314265,-0.288143153,-0.832597338,-46.799469,40.753174,-127.02408,9.275743181,1.108612656,141.3726369,16.65222414,28.2102931
54000,54000,1.518214619,-7.2060067,-0.960103355,0.385559812,-0.392360873,-0.437575569,-48.402405,39.5782465,-126.869202,7.427218795,0.707465049,141.4391889,16.595,28.195
54100,54100,3.40376285,-8.814827,-2.86425785,0.293037415,-0.57528685,-0.22657013,-49.519348,38.873291,-126.4213575,9.88058789,0.687772637,141.2292078,16.53777586,28.1797069
54200,54200,3.6778946,-8.808235,-2.8421097,0.268005365,-0.336662295,-0.175445555,-50.203704,38.265228,-127.2636425,9.963534422,0.467235331,142.0588824,16.48055172,28.16441379
54300,54300,3.68687901,-7.681826025,-2.747600535,0.10469971,-0.361965179,-0.272749326,-50.978852,37.7937325,-126.750945,8.956513336,0.465880373,141.749838,16.42332759,28.14912069
54400,54400,0.964310473,-10.32557025,-1.960809365,0.78407516,0.081661987,0.522095491,-50.547027,37.6075735,-128.19519,10.56299283,0.947477058,142.840822,16.36610345,28.13382759
54500,54500,1.960655225,-7.4441453,-0.09057617,0.211547855,1.2276764,0.16757965,-48.56491,38.6482235,-130.512235,7.827049075,1.257030602,144.5191668,16.30887931,28.11853448
54600,54600,4.207081758,-10.24432142,0.654183637,0.650739179,0.067408509,0.688458879,-45.8718102,39.3287668,-132.8014395,11.1284037,0.95319514,145.9020915,16.25165517,28.10324138
54700,54700,1.538732924,-9.931428,0.43291933,0.555831891,-0.124465179,0.274424746,-45.01045195,39.0417488,-134.471135,10.06850956,0.633936637,147.0807391,16.19443103,28.08794828
54800,54800,1.31218877,-8.9706866,0.78031158,0.223152159,0.58361815,0.036329651,-44.10736065,38.8888548,-136.352848,9.101495864,0.626850951,148.4921496,16.1372069,28.07265517
54900,54900,1.8900299,-9.3367655,0.438541415,0.26320648,0.311813358,0.354797375,-42.9785165,39.11964425,-137.707978,9.537357049,0.541097746,149.469082,16.07998276,28.05736207
55000,55000,2.602330289,-9.340008789,0.932279082,0.236075151,0.010605662,0.3473567,-41.291809,39.0205385,-139.032745,9.740847645,0.421339401,150.1923382,16.02275862,28.04206897
55100,55100,2.1250213,-9.3668118,0.772167964,0.113003539,0.136315917,0.28358154,-40.564728,39.2082215,-139.696505,9.636199043,0.334897519,150.6583065,15.96553448,28.02677586
55200,55200,2.879373165,-9.50130785,0.883748603,-0.083053592,0.425481414,0.319802862,-39.0541075,39.3440245,-140.14435,9.967794359,0.53912043,150.7105831,15.90831034,28.01148276
55300,55300,3.66162337,-12.56767353,-0.053404227,-0.390603646,-0.692144755,-0.129630283,-38.217926,39.665222,-138.820645,13.10258601,0.810350667,149.3493146,15.85108621,27.99618966
55400,55400,-0.996836878,-9.47365435,-1.724975575,-1.72569653,-0.300342557,-1.236606635,-41.9525145,39.808655,-134.166715,9.691986316,2.144330042,146.1020402,15.79386207,27.98089655
55500,55500,2.55992423,-11.003848,-0.425765992,-1.1962006,0.012425232,-0.816947944,-44.89975,39.519501,-129.12674,11.30973361,1.452808121,142.308337,15.73663793,27.96560345
55600,55600,0.926124574,-7.33831638,-0.69319917,-0.080874634,-0.289683531,-0.508338932,-47.026062,38.4323125,-126.56555,7.429002475,0.594834891,140.3829513,15.67941379,27.95031034
55700,55700,1.37156527,-8.7244385,-2.94781032,0.419064335,-0.491871647,-0.135603335,-47.9507445,37.822724,-126.60446,9.316805207,0.661609734,140.5650828,15.62218966,27.93501724
55800,55800,3.7080643,-7.93255923,-2.01575778,-0.007365417,0.084004211,-0.273442075,-48.63120568,37.20084747,-126.6492342,8.985789274,0.288727233,140.673234,15.56496552,27.91972414
55900,55900,5.01685029,-8.36746975,-3.04957121,0.23061524,-0.481755054,-0.131022647,-49.2649844,36.40441885,-126.555631,10.22390282,0.549999075,140.6010696,15.50774138,27.90443103
56000,56000,2.53419185,-7.85224152,-2.32185979,0.50363923,-0.232910156,0.110905457,-49.82009905,35.987854,-126.776734,8.575016565,0.567911246,140.8887122,15.45051724,27.88913793
56100,56100,3.89888455,-14.80260465,-5.01042332,0.550186158,-0.095806887,0.681991565,-48.1312565,36.47895815,-128.880542,16.11166691,0.889802652,142.3291913,15.3932931,27.87384483
56200,56200,-2.08374783,-6.12625728,1.82059787,0.245312499,0.337863157,0.241610719,-47.19314575,37.03659055,-129.8941045,6.754756282,0.512080196,143.0782443,15.33606897,27.85855172
56300,56300,3.56328203,-10.1093151,-0.182394405,0.536925507,-0.022898102,0.413327787,-45.37734965,37.4148555,-132.190476,10.7220941,0.679958323,144.6835762,15.27884483,27.84325862
56400,56400,2.257476785,-10.1351131,0.10377121,0.496121981,0.22536392,0.051783752,-44.5165255,37.14691195,-133.908614,10.38429281,0.548358924,145.9221033,15.22162069,27.82796552
56500,56500,1.030210923,-9.3626729,0.911934658,0.16797638,0.501702878,0.128313442,-43.97392365,36.8004609,-135.6394925,9.46371246,0.544756402,147.2620039,15.16439655,27.81267241
56600,56600,1.97070615,-9.5955703,0.334998322,0.250264739,0.425639347,0.34664079,-42.7756501,37.0837408,-136.8305955,9.80170305,0.603452401,148.0797105,15.10717241,27.79737931
56700,56700,2.77048954,-9.42044335,0.96341322,0.151512147,0.197515866,0.252853395,-41.2707528,36.7614748,-137.897038,9.866802264,0.354887953,148.5607815,15.04994828,27.78208621
56800,56800,2.347087075,-9.5209962,0.639473725,0.067623137,0.205018618,0.242356109,-40.184021,37.0245356,-138.82904,9.826996192,0.324639643,149.194767,14.99272414,27.7667931
56900,56900,3.09915997,-9.5446995,1.173739655,-0.084066773,0.432665257,0.319754015,-38.7249752,37.3211668,-139.389956,10.10424243,0.544612013,149.4057245,14.9355,27.7515
57000,57000,2.6244507,-12.934647,-0.6274719,-0.3929901,-0.5348053,-0.21751404,-38.465576,37.6748656,-138.289794,13.21312058,0.698405531,148.4017245,14.87827586,27.7362069
57100,57100,-0.98480225,-9.375671,-1.204483,-1.728836,-0.1907196,-1.2433624,-41.843566,38.1878664,-134.020688,9.503884546,2.138036,145.5030278,14.82105172,27.72091379
57200,57200,2.3730621,-11.608261,-0.5448761,-1.1525269,-0.23013306,-0.7554779,-44.5498658,38.4466552,-128.905944,11.86086157,1.397149361,141.7027839,14.76382759,27.70562069
57300,57300,1.2908783,-7.5824127,-0.38685608,-0.09152222,-0.22375488,-0.7650604,-47.0474236,37.4462888,-126.2243644,7.701234107,0.802346545,139.815339,14.70660345,27.69032759
57400,57400,1.3375702,-7.635086,-2.018509,0.3644104,-0.6274872,-0.27397156,-48.8146972,36.2228392,-125.664369,8.00986959,0.775625903,139.5941998,14.64937931,27.67503448
57500,57500,3.9628143,-8.343765,-2.287857,0.12046814,-0.15663147,0.124435425,-49.1674806,36.1694338,-126.0034184,9.516123223,0.233516948,140.0093662,14.59215517,27.65974138
57600,57600,6.1307526,-9.676132,-3.651352,0.27598572,-0.4889984,-0.13017273,-49.1082768,36.5829476,-125.4400656,12.0227297,0.576396125,139.5893659,14.53493103,27.64444828
57700,57700,1.29076539,-7.3192809,-1.71534115,0.417354598,-0.262097927,0.001981354,-50.2166748,36.058654,-125.139464,7.637216099,0.499426488,139.5774489,14.4777069,27.62915517
57800,57800,6.23382185,-13.66428795,-5.30699784,0.084027864,-0.027475735,0.776484665,-48.1832886,37.568359,-126.638792,15.95068893,0.823117475,140.6074041,14.42048276,27.61386207
57900,57900,0.467696379,-8.64687235,-0.183113099,0.516266645,0.122251894,0.793730923,-46.4645392,38.2324222,-129.226076,8.677447735,0.95537997,142.5486245,14.36325862,27.59856897
58000,58000,0.63067932,-9.82164835,-0.110388184,0.441527554,0.131147007,0.201931761,-44.9163816,38.3840938,-131.508786,9.843386913,0.503233295,144.1713762,14.30603448,27.58327586
58100,58100,2.467984765,-9.38967535,0.427706904,0.348436734,0.379507445,-0.001743317,-44.1250602,38.6318968,-132.973328,9.719214516,0.515419272,145.3318942,14.24881034,27.56798276
58200,58200,2.1522843,-9.327914632,0.612838726,0.212418406,0.387606975,0.165138649,-43.6465454,38.4292602,-134.865112,9.592954862,0.472008241,146.8688261,14.19158621,27.55268966
58300,58300,2.57848049,-9.6890671,0.676531983,0.281420898,0.10009308,0.33450775,-42.4530792,38.640519,-135.9506965,10.04995896,0.448601631,147.5740035,14.13436207,27.53739655
58400,58400,2.46140293,-9.4245038,0.751824952,0.208673096,0.037992859,0.282736207,-41.50733965,38.6312101,-136.1939215,9.770696515,0.35404616,147.5264877,14.07713793,27.52210345
58500,58500,1.83424229,-9.5056721,0.790724205,0.021186829,0.336042782,0.37157135,-40.40313695,39.0647885,-137.4017305,9.713275104,0.501596083,148.4510806,14.01991379,27.50681034
58600,58600,3.3144623,-10.3025805,1.28392948,-0.08832855,0.409130858,0.331513979,-38.583908,39.59808355,-137.0940395,10.89874718,0.535324123,147.8226706,13.96268966,27.49151724
58700,58700,1.50730894,-11.7559843,-1.4667587,-0.679444886,-0.614375317,-0.473605347,-39.0911873,39.8463442,-135.9439855,11.94556082,1.032575895,146.9582342,13.90546552,27.47622414
58800,58800,-0.561518864,-9.6754165,-1.30574949,-1.68814846,-0.283511348,-0.966819765,-42.346878,40.059433,-130.3962675,9.784018021,1.966334357,142.8342473,13.84824138,27.46093103
58900,58900,2.058285545,-10.681937,-1.162824985,-1.010420989,-0.209850307,-0.824449149,-45.34309395,39.3703458,-125.688856,10.94108969,1.324403293,139.2975418,13.79101724,27.44563793
59000,59000,1.95915451,-8.3866278,-1.064718626,0.052069092,-0.401758585,-0.71494219,-47.92625545,37.54684495,-124.285736,8.682946345,0.825574428,138.3969559,13.7337931,27.43034483
59100,59100,0.970475785,-7.55787044,-2.142891705,0.123394012,-0.399457548,-0.200314333,-49.45182835,36.75880345,-123.855439,7.917632569,0.465403682,138.3362834,13.67656897,27.41505172
59200,59200,3.45793612,-8.489209675,-2.41773833,0.29463958,-0.211070254,0.179077144,-49.0367121,36.8177791,-123.8609325,9.481166139,0.404383931,138.2088888,13.61934483,27.39975862
59300,59300,6.59037856,-9.93633405,-4.58707275,-0.047426606,-0.506046292,-0.297734845,-49.16534445,36.63963285,-124.1879278,12.77541389,0.592013203,138.5004335,13.56212069,27.38446552
59400,59400,0.91887818,-7.896231,-1.025815581,0.657788065,-0.252406306,0.405767053,-49.4915771,36.15234355,-123.7761655,8.016540841,0.814385245,138.1196501,13.50489655,27.36917241
59500,59500,5.2590301,-13.093143,-5.24996032,0.375491332,-0.24355469,0.150424191,-47.3918161,37.1630857,-126.095658,15.08162691,0.614583593,139.7398405,13.44767241,27.35387931
59600,59600,-0.31826478,-8.262607,0.732662964,0.56318968,-0.128518674,0.6770935,-46.5344239,37.32704145,-127.9913344,8.369331308,0.907621885,141.2113702,13.39044828,27.33858621
59700,59700,0.83430786,-10.023776,0.211453246,0.50289306,-0.041369628,0.169812014,-45.40626545,37.8108214,-130.7394405,10.06490826,0.533934546,143.4720307,13.33322414,27.3232931
59800,59800,1.71489562,-9.4242704,0.354864494,0.443875124,0.380255128,-0.023638916,-44.69024645,37.1899402,-132.660373,9.586548554,0.587217427,144.8418513,13.276,27.308
59900,59900,2.07067262,-9.4084688,0.900262432,0.240838626,0.30654602,0.173858642,-43.8580322,36.96449285,-134.2278255,9.676213172,0.427990537,145.9692628,13.21877586,27.2927069
60000,60000,2.17960512,-9.7319214,0.7728882,0.22230835,0.10371704,0.51495972,-42.5474544,37.2689821,-135.158392,10.00405051,0.570551216,146.5168113,13.16155172,27.27741379
60100,60100,1.88823548,-9.600485,0.9673004,0.17330017,0.164868162,0.30445862,-41.25920353,37.49180847,-135.9681774,9.83228409,0.388281035,146.9534627,13.10432759,27.26212069
60200,60200,2.3470268,-9.691105,0.6647949,0.037910461,0.50888824,0.290615085,-39.6714784,37.7432248,-137.091065,9.994580955,0.587845456,147.6223207,13.04710345,27.24682759
60300,60300,3.6737137,-11.52685913,1.23221585,-0.247318265,-0.067955019,0.113773343,-37.9536438,38.2060246,-136.866151,12.18222947,0.313064209,147.0800298,12.98987931,27.23153448
60400,60400,0.953300465,-10.418644,-1.5686913,-1.248928075,-0.250907903,-0.908603675,-40.0697329,38.6238102,-134.291836,10.58543298,1.574166379,145.3679395,12.93265517,27.21624138
60500,60500,0.522342685,-10.53715888,-0.358425138,-1.57064055,0.104625701,-0.6215248,-42.5431821,39.042358,-129.23462,10.56404972,1.6948141,141.5480981,12.87543103,27.20094828
60600,60600,1.45907595,-8.64752925,-0.649921413,-0.673427575,0.114212037,-0.77518464,-44.41452,38.7242134,-125.5827332,8.794286918,1.038240616,138.7201367,12.8182069,27.18565517
60700,60700,1.271728475,-7.934959375,-1.682418825,0.30208588,-0.351314545,-0.598350525,-46.9717399,37.5061036,-124.903717,8.215445835,0.759674764,138.6145952,12.76098276,27.17036207
60800,60800,3.0808411,-8.390457,-2.8295403,0.024589539,-0.207233425,-0.203140263,-48.031616,36.8861386,-124.635161,9.377562995,0.291563983,138.5696607,12.70375862,27.15506897
60900,60900,3.6758652,-8.1036224,-2.53697509,0.431524669,-0.283088686,0.124746705,-48.0587764,36.8850711,-124.409945,9.256220119,0.531321378,138.3762982,12.64653448,27.13977586
61000,61000,4.64575185,-7.923822,-4.03945922,0.449635319,-0.214584348,-0.190669249,-48.1440731,36.4666745,-126.07254,10.03638885,0.54112948,139.7927258,12.58931034,27.12448276
61100,61100,2.29476318,-14.3393282,-5.40080101,0.652563464,-0.763945019,0.850306695,-46.99478,36.9789111,-127.7142345,15.60826771,1.352917295,141.0210407,12.53208621,27.10918966
61200,61200,-3.50231018,-6.54248519,0.5756073,0.40851288,0.185314941,0.29593811,-45.9852598,37.5024408,-129.782409,7.503635089,0.630650555,142.7044371,12.47486207,27.09389655
61300,61300,3.41022951,-10.9493807,-0.059571839,0.52206727,0.029144288,0.215942386,-44.2298899,37.7185057,-131.705473,11.54221557,0.567150701,143.9629547,12.41763793,27.07860345
61400,61400,2.232621047,-9.780409211,-0.010278801,0.511131669,0.205608973,0.112829108,-43.4259032,37.3420715,-133.411868,10.03327724,0.56527658,145.1860055,12.36041379,27.06331034
61500,61500,1.93587186,-9.09638155,1.0207504,0.165099334,0.448274232,0.186055753,-42.7697755,37.2303782,-134.737393,9.35822522,0.514675448,146.1833195,12.30318966,27.04801724
61600,61600,1.56166152,-9.6888901,0.532874299,0.330959325,0.198204039,0.55548784,-40.8161925,37.5564571,-136.095275,9.830391621,0.677014619,146.9643138,12.24596552,27.03272414
61700,61700,2.47918242,-9.465096275,1.45440294,0.115782928,0.296372227,0.233410641,-39.312287,37.8089898,-137.437744,9.893544297,0.3956591,147.8653214,12.18874138,27.01743103
61800,61800,2.358998095,-9.57612515,0.683952328,-0.017649841,0.622712703,0.220626829,-37.78533875,37.64610325,-138.03024,9.889471325,0.661278256,147.9774037,12.13151724,27.00213793
61900,61900,4.119213175,-11.74964065,1.172959916,-0.31607666,0.115966032,0.081391143,-35.9344485,38.39301925,-138.0237575,12.51520715,0.387451647,147.7022587,12.0742931,26.98684483
62000,62000,0.52511115,-10.47290732,-1.478422484,-1.470205242,-0.480477573,-1.020497358,-37.77885425,39.36119,-134.9994675,10.59770344,1.865283882,145.6079183,12.01706897,26.97155172
62100,62100,0.592251602,-9.9067018,-0.109127808,-1.71520078,0.375787356,-0.58567505,-40.44494657,40.526036,-128.6121886,9.955551814,1.855397297,140.7814394,11.95984483,26.95625862
62200,62200,2.50617988,-8.32677,-1.23823854,-0.333551028,-0.235037228,-0.62657471,-42.050935,40.62194825,-125.0915525,8.784493622,0.756411031,138.0809108,11.90262069,26.94096552
62300,62300,1.61984252,-8.2178254,-1.8494812,0.64649046,-0.64154356,-0.402233884,-43.7343595,40.3011325,-125.352475,8.588103927,0.996924702,138.7448024,11.84539655,26.92567241
62400,62400,2.1829559,-9.0517336,-3.48232418,0.272793578,-0.28106079,-0.210916134,-45.030595,39.7205355,-126.2165075,9.944524153,0.455273599,139.7715532,11.78817241,26.91037931
62500,62500,4.6173828,-8.7048125,-2.68865052,0.031408691,-0.365005492,-0.168518068,-45.493317,39.81781,-126.045989,10.21621148,0.403686934,139.7951804,11.73094828,26.89508621
62600,62600,3.39227298,-6.9501008,-2.07669374,0.493304452,-0.31046142,-0.096929934,-46.27418525,40.151596,-125.6313313,8.013685513,0.595434942,139.7738269,11.67372414,26.8797931
62700,62700,2.16644361,-15.1334824,-4.08548436,0.990302275,0.02717972,0.723324582,-44.9771885,40.74936,-128.594205,15.89470124,1.250101316,142.1973429,11.6165,26.8645
62800,62800,-2.2185402,-6.288102,2.511801125,0.142252352,0.267819219,0.415784447,-43.57604975,41.8361665,-129.93736,7.214097797,0.670558519,143.2930772,11.55927586,26.8492069
62900,62900,2.92767332,-11.46430515,-1.162286355,0.537412247,-0.060395812,0.228727721,-41.463088,42.35000625,-131.3682525,11.94633281,0.589075855,144.1192562,11.50205172,26.83391379
63000,63000,2.429981195,-10.0733391,-0.022641762,0.49596635,0.30569229,0.066107939,-40.86532625,42.40341175,-133.4609975,10.36817664,0.588514237,145.8766204,11.44482759,26.81862069
63100,63100,1.90594862,-9.36070095,0.463142398,0.180600736,0.344995118,0.234042355,-40.046311,42.6422125,-135.086055,9.566545365,0.454972179,147.2084462,11.38760345,26.80332759
63200,63200,1.480796035,-9.26769275,0.531494895,0.227467348,0.184145358,0.415567783,-38.661576,42.9225925,-136.01074,9.400360098,0.508800304,147.7701698,11.33037931,26.78803448
63300,63300,2.574173,-9.682129,0.85692595,0.230186465,0.129920963,0.36411286,-36.8892665,43.132019,-137.5446325,10.05641815,0.450174431,148.7944327,11.27315517,26.77274138
63400,63400,2.5484314,-9.4923855,0.4475174,0.02885437,0.38345337,0.29486847,-35.18791225,43.929291,-138.092805,9.840298371,0.485888105,149.1229953,11.21593103,26.75744828
63500,63500,2.9069671,-12.956192,-0.57779695,-0.448387145,-0.179000855,-0.25587464,-34.47876,44.701386,-137.1345525,13.32152575,0.552816153,148.3003238,11.1587069,26.74215517
63600,63600,-0.498786935,-9.5678025,-1.4690399,-1.8747711,-0.15930176,-1.046295175,-38.24462875,46.21811,-132.27043,9.719827374,2.154583924,145.239496,11.10148276,26.72686207
63700,63700,2.1264496,-10.271698,-0.355735785,-1.2702408,0.013809205,-0.490760805,-41.039734,46.5899664,-124.731446,10.5041659,1.372681304,139.3304126,11.04425862,26.71156897
63800,63800,1.26340406,-7.59181214,-1.402178195,0.005461885,-0.394673158,-0.644046795,-43.4240714,46.193848,-121.93939,7.824795264,0.763510787,137.4364114,10.98703448,26.69627586
63900,63900,1.983703605,-8.71654365,-2.80164568,0.429234311,-0.403084562,-0.334114074,-45.727844,45.1696776,-122.771302,9.369209063,0.685732871,138.5791127,10.92981034,26.68098276
64000,64000,2.437464865,-8.3148526,-2.935844435,0.159878539,0.144889067,-0.099643705,-46.6647326,44.949035,-122.993469,9.148996793,0.242656186,139.0158604,10.87258621,26.66568966
64100,64100,6.13494875,-8.6586075,-2.47400665,0.32499695,-0.077270507,-0.171180725,-47.039186,44.840088,-123.616941,10.9045354,0.379614274,139.658541,10.81536207,26.65039655
64200,64200,1.5039673,-8.0037917,-1.59772495,0.59450532,-0.230667115,0.204330445,-47.63031,44.6209712,-124.678954,8.384708899,0.688178093,140.7286129,10.75813793,26.63510345
64300,64300,4.20881655,-11.616638,-2.096321025,0.118865965,0.648704505,0.66612243,-44.9380488,45.9045414,-127.3416168,12.74046153,1.059381353,142.6274526,10.70091379,26.61981034
64400,64400,2.657371535,-10.6996615,1.98340605,0.652565,-0.061820984,0.741752635,-42.3590084,46.6204832,-129.79553,11.32280901,0.991075091,144.2730239,10.64368966,26.60451724
64500,64500,1.4004135,-9.0033645,0.69232177,0.442176815,0.17465973,0.103126525,-41.121521,46.4715576,-132.061766,9.143223412,0.493365172,145.9140611,10.58646552,26.58922414
64600,64600,1.149738338,-9.24231335,0.441651922,0.277323913,0.342066195,0.079159545,-40.4473864,46.38031,-133.898618,9.326442371,0.452940823,147.3633972,10.52924138,26.57393103
64700,64700,2.044094845,-9.5980875,0.102336121,0.244460297,0.371152495,0.400920113,-38.727188,46.400452,-135.33096,9.814468574,0.599227341,148.213756,10.47201724,26.55863793
64800,64800,3.042356835,-8.9897853,1.02590104,0.126743317,0.185523987,0.351386264,-36.73210175,46.5579985,-136.2316125,9.555928262,0.418397897,148.5799035,10.4147931,26.54334483
64900,64900,1.833649475,-9.87766595,0.601705161,0.095378113,0.179719546,0.29381027,-35.35316921,46.89009695,-136.5446395,10.06819755,0.358011328,148.6371898,10.35756897,26.52805172
65000,65000,4.24897307,-12.56276655,0.175837735,-0.423994438,-0.140389253,-0.154190065,-34.0762328,47.032776,-135.891418,13.28801725,0.490046427,147.78279,10.30034483,26.51275862
65100,65100,-0.300543224,-9.828894,-1.67207034,-1.99472354,-0.366708372,-1.31154478,-37.758179,48.6730956,-129.151608,10.0096676,2.415602768,143.0919107,10.24312069,26.49746552
65200,65200,3.0211731,-10.9060366,-0.136901856,-1.32020568,0.06089783,-0.995590192,-41.6549694,48.1134036,-121.3974008,11.3270934,1.663838829,137.0677803,10.18589655,26.48217241
65300,65300,0.616909808,-7.07148748,-0.837683096,-0.012054444,-0.67349852,-0.86221618,-45.7910158,46.8371576,-118.437498,7.148225612,1.109752235,135.3442313,10.12867241,26.46687931
65400,65400,-0.144683839,-7.23309636,-2.0431732,0.398709104,-0.382687378,0.071166994,-47.1005252,46.752014,-118.7469468,7.521748868,0.567917391,136.0332822,10.07144828,26.45158621
65500,65500,5.70482788,-9.5858766,-4.00090332,0.302194214,-0.018148804,0.458923336,-45.096434,47.4609374,-119.2068488,11.86061194,0.557377381,136.0018905,10.01422414,26.4362931
65600,65600,4.06192624,-7.916403,-4.08278808,0.199084474,-0.307900998,-0.23072204,-44.752502,48.2012942,-119.8400852,9.79752164,0.442087222,136.7033363,9.957,26.421
65700,65700,1.027517716,-13.0313718,-2.74897766,0.91110532,-0.004299926,0.96918942,-43.547668,49.1171264,-123.214416,13.41283827,1.354036038,139.6095804,9.899775862,26.4057069
65800,65800,-1.98965756,-6.8909668,2.28602602,0.344381716,0.95571288,0.144030764,-41.4721684,50.0585938,-124.637148,7.598401849,1.048538707,140.5710596,9.842551724,26.39041379
65900,65900,3.01661376,-11.2759429,-0.792196652,0.594290164,-0.032421876,0.356445312,-39.2864988,50.5325308,-127.807922,11.77734434,0.701603152,142.9402115,9.785327586,26.37512069
66000,66000,2.81215816,-10.0826784,0.229650879,0.52697143,0.078784179,0.132955933,-37.8948978,50.8370968,-130.090032,10.47807236,0.552568629,144.7199504,9.728103448,26.35982759
66100,66100,1.42788926,-9.1281732,0.96514893,0.221452331,0.407257846,0.25615082,-37.0846544,50.8221436,-131.867984,9.293937951,0.531807503,146.1072635,9.67087931,26.34453448
66200,66200,2.05719763,-9.24446175,0.292490385,0.299533845,0.267337043,0.476341242,-34.970398,51.574402,-133.671874,9.478342887,0.623244767,147.4824401,9.613655172,26.32924138
66300,66300,2.563098945,-9.3103069,1.167932925,0.117006682,0.065847777,0.37018661,-32.905427,52.23419205,-134.7779875,9.727418928,0.393978886,148.2440854,9.556431034,26.31394828
66400,66400,2.348636605,-10.1620407,0.279865265,-0.006194305,0.255786138,0.284216306,-31.2683103,52.58071795,-135.018161,10.43824543,0.384941864,148.2308076,9.499206897,26.29865517
66500,66500,3.99781803,-12.7849435,-1.168749985,-0.767331697,-0.676539625,-0.47009049,-31.4888001,54.3596649,-134.142762,13.45197075,1.126948031,148.1247566,9.441982759,26.28336207
66600,66600,-2.9521881,-11.19124435,-0.899284364,-1.728784945,-0.302686312,-1.172422045,-37.83416775,55.56655805,-125.534899,11.61562282,2.119304375,142.4022544,9.384758621,26.26806897
66700,66700,2.449009735,-9.9192732,-0.351788332,-0.958440415,-0.249629211,-0.797018445,-42.80036925,54.6916961,-119.009019,10.22451468,1.279462565,137.7913249,9.327534483,26.25277586
66800,66800,0.392218777,-6.833265645,-1.07387615,0.163608555,-0.59099961,-0.429876712,-46.66595465,53.9852902,-116.7877964,6.928393348,0.757769171,136.8631291,9.270310345,26.23748276
66900,66900,1.73979341,-8.963867,-3.16198274,0.301347351,-0.304283142,0.118576049,-47.1070858,54.39865205,-117.469711,9.666093138,0.446268753,137.7585788,9.213086207,26.22218966
67000,67000,4.3920944,-8.8946751,-3.41684571,0.123339843,0.171574398,0.105894469,-46.99516325,55.29533375,-119.0882135,10.49463377,0.238917129,139.4565517,9.155862069,26.20689655
67100,67100,3.51377564,-7.5263825,-3.01904151,0.166583253,-0.18071289,-0.262365724,-48.23280295,55.2100357,-118.7057494,8.84021346,0.367181459,139.5193463,9.098637931,26.19160345
67200,67200,0.967062408,-13.8899365,-2.62902523,0.99654081,0.047897339,0.804391491,-47.31025695,56.36787395,-122.651294,14.18801407,1.284469759,143.0355207,9.041413793,26.17631034
67300,67300,-2.65680239,-5.7284607,2.85213311,0.337985231,1.34261475,0.043258668,-46.59903243,56.813267,-125.7901879,7.050110645,1.390784388,145.6794335,8.984189655,26.16101724
67400,67400,4.8857742,-12.0022233,-0.01719206,0.5614792,0.345852664,0.483641044,-43.6178589,57.9043576,-129.264829,12.97255621,0.837276682,148.2054169,8.926965517,26.14572414
67500,67500,1.782585175,-9.809612,0.024639128,0.458953875,0.782131205,0.092739108,-42.7404786,57.3959355,-133.346253,9.978745698,0.923247296,151.3351776,8.869741379,26.13043103
67600,67600,1.844535875,-9.26044475,1.0077591,0.098358158,0.912624375,0.214183808,-41.4151006,57.8141787,-135.246277,9.499471748,0.94264251,152.8046689,8.812517241,26.11513793
67700,67700,1.7158508,-9.44509925,0.965263368,0.237380983,0.55921555,0.336151135,-39.379425,57.5421143,-136.513973,9.648205664,0.695182225,153.2902995,8.755293103,26.09984483
67800,67800,2.3721619,-9.6818315,1.1325569,0.10368347,0.406616208,0.295940398,-37.2372435,57.8332522,-138.865659,10.03406898,0.513493352,154.967715,8.698068966,26.08455172
67900,67900,2.64928435,-9.63184325,0.922473925,-0.011901856,0.36400986,0.344139103,-35.4945371,58.231506,-139.325717,10.03323053,0.501229569,155.12073,8.640844828,26.06925862
68000,68000,2.417049425,-13.11331175,-1.210765868,-0.4164238,-0.42934036,-0.181560516,-35.4983521,58.302307,-138.274685,13.42089127,0.633006505,154.2051222,8.58362069,26.05396552
68100,68100,-1.275012404,-9.823005053,-1.592836921,-2.146419353,-0.084528875,-0.935224034,-40.4693603,58.9349367,-130.819094,10.04747258,2.343582647,149.0809292,8.526396552,26.03867241
68200,68200,2.70920712,-11.2460144,-0.221176144,-1.21239314,0.010186768,-0.84772336,-44.7290042,58.3990479,-121.6351306,11.57673998,1.485915432,142.1492406,8.469172414,26.02337931
68300,68300,0.447161864,-7.16294564,-0.350946042,0.028634644,-0.58103638,-0.8856476,-50.2876273,56.2234497,-119.1538974,7.187720001,1.065194306,141.0234195,8.411948276,26.00808621
68400,68400,-0.199026488,-7.16748962,-2.10494382,0.422787474,-0.37608642,-0.188760372,-53.6718752,54.8356629,-119.833377,7.475058296,0.599505982,142.2942928,8.354724138,25.9927931
68500,68500,3.7016022,-8.8178226,-2.66494138,0.245526126,-0.298956296,0.151702884,-53.594208,55.081941,-119.7779845,9.928753512,0.416297898,142.3135389,8.2975,25.9775
68600,68600,5.5128174,-9.8686342,-4.2798341,0.223153688,-0.46151123,-0.251181026,-54.183198,54.5959472,-120.642091,12.08778233,0.577166512,143.0771572,8.240275862,25.9622069
68700,68700,-0.57947388,-8.7608337,-0.098596192,0.785614016,-0.129370121,0.431442269,-56.811523,53.90625,-121.67969,8.793396013,0.916789997,144.7044571,8.183051724,25.94691379
68800,68800,3.59284901,-8.794531375,0.40603333,0.268166353,1.210793314,0.062909699,-54.7755429,55.663605,-125.687411,9.657653161,1.265303483,147.9733949,8.125827586,25.93162069
68900,68900,3.440456355,-10.74173925,1.631275925,0.660068514,-0.089364624,0.812802889,-53.4275815,56.1477676,-130.045625,11.46221153,1.052230966,151.3903178,8.068603448,25.91632759
69000,69000,-0.273850249,-9.4453427,0.708843991,0.627632145,-0.200200654,0.296839903,-52.4099736,56.1082457,-133.186035,9.47903019,0.725404755,153.7317835,8.01137931,25.90103448
69100,69100,1.008425125,-9.45773435,0.648936445,0.356634525,0.475756081,-0.014909363,-51.9512176,55.9058376,-136.0260015,9.540340586,0.594910064,155.9727335,7.954155172,25.88574138
69200,69200,1.324879435,-9.1160161,0.57639007,0.276313017,0.270057678,0.337915801,-51.4578255,56.02256615,-137.525863,9.230332718,0.513531629,157.1617026,7.896931034,25.87044828
69300,69300,1.489414965,-9.26715365,1.03062211,0.299909973,0.019133759,0.582701111,-49.42512665,56.67045585,-139.970472,9.442939968,0.655954328,158.8902896,7.839706897,25.85515517
69400,69400,1.15968321,-9.8936512,0.478399664,0.164144891,0.317509461,0.333549496,-47.67784115,57.41172835,-140.9812935,9.97313234,0.489513717,159.514954,7.782482759,25.83986207
69500,69500,3.26800995,-10.6718872,1.68818966,-0.075869749,0.290248112,0.20538788,-45.92292795,57.7950288,-142.0153805,11.28820517,0.365107583,160.0548459,7.725258621,25.82456897
69600,69600,0.97986754,-12.2379348,-1.05783385,-1.11652681,-0.87846374,-0.80213166,-48.4687041,58.46519335,-138.0622085,12.32378862,1.633168561,157.5713823,7.668034483,25.80927586
69700,69700,-0.92830505,-9.7936906,0.563873291,-1.64339596,0.168801884,-0.876069644,-54.68391435,57.92014985,-128.6283075,9.862252721,1.870231701,151.2958428,7.610810345,25.79398276
69800,69800,0.881117247,-9.6463378,-0.568823239,-0.993589785,-0.277017207,-0.798190308,-59.31930545,56.3102712,-121.2353485,9.703990563,1.304706672,146.245398,7.553586207,25.77868966
69900,69900,1.20695952,-7.5318892,-0.934538271,0.178411866,-0.460018923,-0.580136125,-63.11462315,54.14329525,-118.5993192,7.685233447,0.762351521,144.8474282,7.496362069,25.76339655
70000,70000,1.615231365,-8.0947155,-2.72281725,0.032470704,-0.635630036,-0.248567204,-64.6838355,52.89657605,-116.1881257,8.691812385,0.683639691,143.1143997,7.439137931,25.74810345
70100,70100,2.79371873,-8.61916405,-2.55336919,0.280195618,-0.151571656,0.208421323,-64.9748234,52.87742625,-115.8117658,9.413905854,0.381082352,142.9339581,7.381913793,25.73281034
70200,70200,4.36784743,-9.63107435,-3.17514498,0.332405094,-0.271730796,-0.126071167,-64.780658,53.3660877,-116.2827333,11.04277824,0.44791642,143.4090563,7.324689655,25.71751724
70300,70300,-0.937767815,-14.11486835,-1.6787712,0.977519227,0.077565003,0.714965054,-65.124359,53.4413923,-118.978348,14.25594335,1.223613652,145.7843008,7.267465517,25.70222414
70400,70400,-2.306525437,-6.627600925,1.4989349,0.455813613,0.853395843,0.203740696,-63.5574337,54.975433,-120.9738125,7.206410604,0.990442305,147.2973966,7.210241379,25.68693103
70500,70500,4.600200655,-11.22218815,-0.12033157,0.510241724,-0.219480897,0.263922882,-61.5205386,56.5935515,-122.2606628,12.13141338,0.616728444,148.105634,7.153017241,25.67163793
70600,70600,2.154647785,-10.2697755,0.469785308,0.530331421,-0.093312835,0.124811552,-61.1528003,56.58668505,-125.4294613,10.50504685,0.552945552,150.5797836,7.095793103,25.65634483
70700,70700,0.54867554,-9.337357,0.73721313,0.25682068,0.5389862,0.13934326,-61.24313395,56.23298615,-127.945557,9.382471092,0.613090148,152.5874791,7.038568966,25.64105172
70800,70800,1.4393158,-9.490585,0.12071228,0.3132782,0.41435242,0.32896423,-59.62898255,56.26914965,-130.826109,9.599864846,0.614856587,154.3936214,6.981344828,25.62575862
70900,70900,2.3898163,-9.466644,1.0041656,0.20675659,0.20661926,0.28102112,-57.86133,56.700134,-131.1203,9.815137244,0.40547833,154.1277774,6.92412069,25.61046552
71000,71000,1.3543243,-9.533691,0.5744171,0.13111877,0.1938324,0.38116455,-56.108093,56.97632,-131.65894,9.646523384,0.447268985,154.0405649,6.866896552,25.59517241
71100,71100,2.0989227,-10.879227,1.4554749,-0.048919678,0.18638611,0.33110046,-54.057312,56.96411,-131.71997,11.17503753,0.383093241,153.3533609,6.809672414,25.57987931
71200,71200,0.59895325,-11.507706,-2.310608,-0.82655334,-0.57847595,-0.32191467,-53.24402,56.370544,-126.945496,11.75265722,1.058987206,148.7539003,6.752448276,25.56458621
71300,71300,-0.412414545,-9.59563485,-0.990502928,-1.783650945,0.154313662,-0.909092711,-55.41992,53.125,-118.19458,9.661741028,2.00805892,140.9382556,6.695224138,25.5492931
71400,71400,1.41418074,-10.16927855,-0.62269517,-1.06086041,-0.286761478,-0.98413391,-58.172607,48.275757,-109.86786,10.28623045,1.475849069,133.3624669,6.638,25.534
71500,71500,1.113712265,-7.61695253,-1.7641838,0.101877594,-0.446865849,-0.666999053,-59.887695,43.634033,-107.318115,7.897632172,0.809720947,130.4133531,6.580775862,25.5187069
71600,71600,0.485832218,-7.258588395,-2.11978612,0.354774475,-0.649799346,0.010234833,-58.80127,42.863464,-106.05774,7.580780562,0.741211359,128.6200222,6.523551724,25.50341379
71700,71700,3.857998625,-9.35777355,-4.188136255,0.388433077,-0.127188114,0.148661801,-57.148743,43.7088,-106.604004,10.95452653,0.435681144,128.6112425,6.466327586,25.48812069
71800,71800,3.863027175,-6.88826522,-2.45951314,-0.07490158,-0.437924949,-0.540140539,-56.84204,42.471313,-105.46875,8.273492544,0.70620142,127.1160382,6.409103448,25.47282759
71900,71900,0.676054384,-15.0096955,-3.35531463,1.142152373,-0.016656494,0.873318483,-54.815674,43.51349,-108.584595,15.44482942,1.44147839,129.1851238,6.35187931,25.45753448
72000,72000,-3.42150723,-5.82806087,3.15020755,0.285365297,0.92257999,0.254389957,-53.66211,44.371033,-111.03058,7.50941298,1.055195271,131.0580036,6.294655172,25.44224138
72100,72100,4.34504848,-12.2408053,-0.392726132,0.652458186,0.14291229,0.244380189,-50.753784,46.34857,-112.59918,13.02386287,0.713033322,131.9193385,6.237431034,25.42694828
72200,72200,1.69729003,-9.4670029,0.23072205,0.399665828,0.136950681,0.052947998,-49.891663,47.01538,-114.71405,9.62071824,0.431742308,133.6373348,6.180206897,25.41165517
72300,72300,1.17093351,-9.1561156,0.88876801,0.30027924,0.196176143,0.278999326,-49.2157,47.11151,-115.852356,9.274426726,0.454895604,134.400327,6.122982759,25.39636207
72400,72400,1.92929381,-9.5484041,-0.12935791,0.41298523,0.100309753,0.501432804,-47.088623,48.34137,-118.33649,9.743466743,0.657381317,136.2268378,6.065758621,25.38106897
72500,72500,1.81329344,-9.858812,1.45918274,0.150607301,0.026269531,0.261534114,-45.24231,49.090576,-119.04755,10.13140664,0.303139876,136.4883527,6.008534483,25.36577586
72600,72600,3.051570865,-9.76419,0.688612368,-0.059242248,0.539727775,0.077025605,-44.174194,49.183655,-120.19806,10.25365058,0.54950855,137.1785878,5.951310345,25.35048276
72700,72700,2.533534225,-12.93321755,-0.828475194,-0.664318847,-0.636910265,-0.529324337,-44.1942583,48.1211853,-118.6981212,13.20787939,1.062066666,135.4919394,5.894086207,25.33518966
72800,72800,-2.57527618,-10.66111685,-1.463594054,-2.073555015,0.025099183,-1.09710847,-47.54775985,44.75669865,-111.3121048,11.0753416,2.347729385,129.052013,5.836862069,25.31989655
72900,72900,3.8702691,-10.84803465,-0.852648164,-1.094840245,-0.128884888,-0.824345415,-49.8160571,40.48606845,-105.2856448,11.54964847,1.381349286,123.3121003,5.779637931,25.30460345
73000,73000,0.684425352,-6.98260186,-1.62023236,0.187946318,-0.58263396,-0.566609195,-51.2263489,38.06755105,-103.648069,7.20126666,0.83853225,121.7218484,5.722413793,25.28931034
73100,73100,1.234670275,-7.708227445,-2.70899585,0.05026474,-0.249317931,0.048206329,-50.5519869,37.9727935,-104.4323755,8.265312485,0.263084829,122.0801276,5.665189655,25.27401724
73200,73200,4.115381005,-8.67093925,-2.892625445,0.093832401,0.027807617,0.394956207,-49.4820401,38.7454221,-105.1036805,10.02451368,0.410611652,122.4600847,5.607965517,25.25872414
73300,73300,4.21827015,-9.0972793,-3.75418634,0.450214386,-0.24910736,-0.014049531,-48.2382206,39.58297715,-105.3355428,10.70928562,0.516052284,122.4308703,5.550741379,25.24343103
73400,73400,-0.639212027,-9.6022726,-0.048500075,0.827380371,0.693074799,0.57903366,-47.8210447,40.4799653,-107.5056458,9.686742593,1.246198151,124.4307578,5.493517241,25.22813793
73500,73500,-0.226806632,-6.623654875,2.008178685,0.43306122,1.282861298,0.001023102,-46.1389927,42.51563875,-109.804226,6.99474854,1.357167322,126.4648489,5.436293103,25.21284483
73600,73600,4.45122908,-12.307425,0.771990963,0.61709136,0.046726225,0.520925883,-44.3590548,43.57345575,-111.636888,13.12137095,0.811322869,127.7857071,5.379068966,25.19755172
73700,73700,1.28602907,-9.7438307,0.426029206,0.538419322,0.053855896,0.112020877,-43.21807865,44.3330379,-114.518741,9.841738504,0.556503787,130.1835951,5.321844828,25.18225862
73800,73800,0.762413785,-9.0207229,1.122144355,0.221343996,0.536161022,0.085547636,-42.76191695,44.59976215,-115.6862675,9.125566717,0.587551269,131.152725,5.26462069,25.16696552
73900,73900,1.603805545,-9.2373483,0.62667159,0.295057676,0.350537105,0.350743104,-41.57455435,45.00465435,-117.6374065,9.396724653,0.577854249,132.6364711,5.207396552,25.15167241
74000,74000,2.03350757,-9.404703825,1.21162719,0.22720795,0.169496156,0.402248382,-39.61593585,45.74439995,-118.3676145,9.698049123,0.492103869,132.9394423,5.150172414,25.13637931
74100,74100,1.52377164,-9.71240465,0.43818512,0.052976226,0.344619747,0.172953037,-38.00049,46.113586,-119.67621,9.841319177,0.389868311,133.7643274,5.092948276,25.12108621
74200,74200,3.0901215,-9.5226716,1.12292482,-0.14947815,0.425640872,0.25098267,-36.4055638,46.2541959,-119.122161,10.07446813,0.517049196,132.8719944,5.035724138,25.1057931
74300,74300,3.45355832,-12.6839784,-1.72162168,-0.69659118,-0.80793458,-0.289321896,-34.8513031,45.693054,-118.7570938,13.25868478,1.112474213,131.9307237,4.9785,25.0905
74400,74400,-2.33776856,-11.0748262,-0.434506227,-2.0160278,-0.18305969,-1.13599244,-36.2982179,43.20732,-112.2531893,11.33212838,2.327590525,125.6393369,4.921275862,25.0752069
74500,74500,2.80401918,-10.717618,-0.7682495,-0.98825992,-0.31087951,-0.932946776,-38.2069406,41.0113528,-107.8721638,11.10711333,1.399457293,121.5653184,4.864051724,25.05991379
74600,74600,0.382043456,-7.0001372,-0.932739252,0.050576783,-0.623855574,-0.562454224,-39.3524933,39.8116301,-107.076414,7.077242856,0.842801438,120.826102,4.806827586,25.04462069
74700,74700,1.51952514,-7.79548956,-2.8186554,0.326910412,-0.42912598,-0.060287474,-39.25666845,39.8227691,-107.4304935,8.434025506,0.544306746,121.1125905,4.749603448,25.02932759
74800,74800,3.82610164,-8.4608458,-2.79375,0.260443118,-0.18433533,0.071594236,-38.2726277,40.664596,-108.5791795,9.697795599,0.327570173,122.0977672,4.69237931,25.01403448
74900,74900,4.57046188,-7.85654308,-3.5730652,0.379742428,-0.234402462,-0.272485356,-37.63549765,41.41853305,-109.9157715,9.769465192,0.54443101,123.3426949,4.635155172,24.99874138
75000,75000,0.878353876,-13.5272122,-6.05105894,0.668859864,-0.9351288,1.09680788,-35.74378825,42.5688174,-113.460385,14.98070863,1.601727593,126.3448947,4.577931034,24.98344828
75100,75100,-3.87389532,-7.1095552,0.358218384,0.33138428,0.45652769,0.253967284,-35.0036623,43.33969025,-116.3951873,8.163946124,0.657534235,129.0405167,4.520706897,24.96815517
75200,75200,1.280819686,-10.051315,-0.43666076,0.66012878,0.15697632,0.21902161,-33.08006265,44.08393885,-119.0286275,10.16759929,0.713601005,131.1698399,4.463482759,24.95286207
75300,75300,2.37126915,-9.87456125,-0.003787993,0.415275583,0.371200563,0.046131134,-31.8663028,43.82522605,-122.0584138,10.1574313,0.564224827,133.545395,4.406258621,24.93756897
75400,75400,2.00974275,-9.38314825,0.6608963,0.22486496,0.450561518,0.26477814,-31.75186175,44.0898896,-123.2086178,9.619136651,0.570271563,134.6568932,4.349034483,24.92227586
75500,75500,2.206359875,-9.513031,0.768043515,0.24429703,0.190635683,0.429630283,-30.4847718,43.7808232,-124.6665955,9.796314106,0.531294844,135.601853,4.291810345,24.90698276
75600,75600,2.1764335,-9.63723775,0.962573983,0.176383973,0.084644318,0.368640895,-28.842163,43.7953187,-125.9927335,9.926855893,0.417966994,136.4700571,4.234586207,24.89168966
75700,75700,2.6337318,-9.4816095,0.480442048,0.012874603,0.389575955,0.233627323,-28.1434632,43.4924312,-127.123566,9.855655863,0.455298386,137.2737079,4.177362069,24.87639655
75800,75800,3.471096075,-13.16778213,-0.287502297,-0.42840957,-0.6666336,-0.160263058,-27.7905273,42.9153442,-127.5192276,13.65467045,0.811508715,137.3871597,4.120137931,24.86110345
75900,75900,-1.379554725,-10.33603688,-1.3963203,-1.95734025,-0.391529085,-1.3773193,-31.8164058,42.7305602,-123.023684,10.54652708,2.425919003,134.0637661,4.062913793,24.84581034
76000,76000,2.30781555,-11.57743075,-0.427856443,-1.2060547,-0.158763886,-0.876121525,-35.3054807,40.9602356,-118.619382,11.82115653,1.512388835,130.364314,4.005689655,24.83051724
76100,76100,-0.384344484,-6.8242919,-0.7777115,-0.047958373,-0.547583009,-0.650762949,-38.5488896,40.313262,-117.806088,6.883921098,0.863198137,130.3436127,3.948465517,24.81522414
76200,76200,0.93749696,-7.50507508,-2.14037326,0.314662174,-0.175067137,0.061470032,-39.3852231,40.1533505,-119.053039,7.864959191,0.373534711,131.6705505,3.891241379,24.79993103
76300,76300,3.94150242,-8.9844572,-3.41564329,0.196739195,0.180415349,0.217425535,-38.35328726,40.17052758,-119.7239916,10.38997841,0.345364016,131.9790956,3.834017241,24.78463793
76400,76400,5.42291415,-9.0459792,-3.84552461,0.288237009,-0.479299921,-0.210064701,-38.6334991,40.1174927,-121.6181183,11.23485133,0.600306809,133.7645902,3.776793103,24.76934483
76500,76500,-1.57689363,-9.4059512,-0.515545653,0.763667285,0.231655882,0.668248,-38.8922884,39.98435905,-124.2790979,9.584604849,1.061365801,136.2230952,3.719568966,24.75405172
76600,76600,1.25077519,-7.66261449,2.88206475,0.281851201,1.55684506,0.139663694,-37.01690675,40.24131755,-127.2753879,8.490973395,1.590162567,138.5231109,3.662344828,24.73875862
76700,76700,4.13848116,-10.8409222,0.828554532,0.61511688,0.121451567,0.542658978,-35.2725225,40.0856783,-130.7852215,11.65674805,0.837516775,141.2652141,3.60512069,24.72346552
76800,76800,2.07880783,-10.17868555,0.689093781,0.521643084,0.249287409,0.143769073,-34.46846175,39.39971925,-133.329548,10.41439706,0.597811196,143.2382872,3.547896552,24.70817241
76900,76900,0.320396427,-8.9401018,0.69076766,0.330430604,0.378765106,0.149362181,-34.31983845,38.99040225,-135.031816,8.975492943,0.528556111,144.6779253,3.490672414,24.69287931
77000,77000,1.643062605,-9.428396,0.51850282,0.259854881,0.318738558,0.316180419,-33.05725145,38.85146955,-136.429973,9.585027307,0.519088339,145.654936,3.433448276,24.67758621
77100,77100,2.29931563,-9.3051608,1.048397825,0.223582459,0.134924316,0.32672653,-31.8067171,38.1874845,-137.8404275,9.642617291,0.418331114,146.5262269,3.376224138,24.6622931
77200,77200,1.867161585,-9.99038085,0.95131609,0.071995544,0.293433382,0.275486747,-31.1410524,37.94197075,-138.907779,10.20894369,0.409413204,147.3253944,3.319,24.647
77300,77300,2.516474925,-10.5331496,1.150279215,-0.103237152,0.173974609,0.338442231,-30.06858745,37.80365005,-139.2555245,10.89106489,0.401768384,147.3951924,3.261775862,24.6317069
77400,77400,2.1149658,-11.0039616,-1.83846436,-1.07071533,-0.493261728,-0.69497376,-31.64711,38.3522035,-137.937162,11.35675905,1.384875316,146.626225,3.204551724,24.61641379
77500,77500,-1.10524292,-10.4200164,0.068994143,-1.69431456,-0.053305056,-0.97961122,-36.21444665,39.7072605,-132.765422,10.48703788,1.960649654,143.2306156,3.147327586,24.60112069
77600,77600,1.57411802,-9.8293702,-0.92387696,-0.892822256,-0.125741578,-0.94317322,-39.870224,39.6419523,-128.2683565,9.999354109,1.309189617,140.0497701,3.090103448,24.58582759
77700,77700,1.32846982,-6.978595,-1.39410094,0.100656128,-0.56825256,-0.438662722,-42.6473996,38.58490005,-127.3639674,7.239785437,0.726808361,139.7468857,3.03287931,24.57053448
77800,77800,2.4695465,-8.6990604,-2.91609496,0.284729002,-0.49091492,-0.02001648,-43.7705235,37.89993275,-127.4253833,9.517141472,0.56943352,139.9625018,2.975655172,24.55524138
77900,77900,3.7025543,-8.3480716,-3.10212398,0.384857176,-0.109121705,0.122299196,-43.84086635,37.63336165,-127.9681385,9.645282035,0.420863846,140.4070831,2.918431034,24.53994828
78000,78000,4.523051179,-8.646885789,-3.920953921,0.342881854,-0.23871492,-0.167059648,-44.25819495,36.9875338,-128.1720695,10.51917232,0.471624578,140.5523357,2.861206897,24.52465517
78100,78100,2.055047596,-14.30790085,-6.54912186,0.36041412,-0.625247948,0.896594243,-42.94204745,37.1410369,-130.1927225,16.06589516,1.168270044,142.0339504,2.803982759,24.50936207
78200,78200,-2.477115635,-8.056998225,-0.390093224,0.498419956,0.172425081,0.671397415,-41.5911868,37.079468,-132.089842,8.549289457,0.86418135,143.3616569,2.746758621,24.49406897
78300,78300,1.287225355,-9.88209745,0.165302274,0.555729665,0.019452669,0.158467103,-39.9792478,36.8890378,-133.984376,9.989646572,0.597766837,144.6064237,2.689534483,24.47877586
78400,78400,2.120528435,-11.20070955,-0.669377885,0.460121169,0.158149716,-0.230355073,-40.3146364,35.7617184,-135.670164,11.43487839,0.540148775,145.9814037,2.632310345,24.46348276
78500,78500,1.421783427,-9.54260085,0.396764375,0.32483216,-0.093093872,0.606250785,-39.4390866,35.494995,-136.520384,9.674565409,0.700225887,146.4690206,2.575086207,24.44818966
78600,78600,2.4020912,-9.62987,0.078450012,0.354074097,0.181427766,0.5069641,-37.6693722,35.5090328,-137.818296,9.929048894,0.644570523,147.220192,2.517862069,24.43289655
78700,78700,2.1450119,-9.693497,1.75654605,0.13910675,-0.08366394,0.29221344,-36.515808,35.29419,-137.943724,10.08742969,0.336157101,146.9950989,2.460637931,24.41760345
78800,78800,2.3539047,-10.1250535,0.684547435,-0.012161255,0.259346005,0.14893341,-36.1697388,35.5978394,-138.534848,10.41799024,0.304454116,147.5377759,2.403413793,24.40231034
78900,78900,2.4490738,-12.60305025,-0.9866028,-0.639602675,-0.734008775,-0.449745175,-36.9842528,35.731202,-137.525024,12.89007851,1.074868307,146.8260193,2.346189655,24.38701724
79000,79000,-2.27648165,-10.5613935,-1.326583875,-1.87104795,-0.134269715,-1.19756315,-41.3543698,35.982056,-132.83783,10.89822808,2.227149221,143.7042963,2.288965517,24.37172414
79100,79100,1.9133759,-11.301796,-0.759757995,-1.11257935,-0.197120665,-0.90194702,-43.9901736,36.0021972,-129.34479,11.49239732,1.449685366,141.2849846,2.231741379,24.35643103
79200,79200,0.557655335,-6.9156265,-0.92375945,-0.040924074,-0.3611679,-0.5349655,-46.630249,34.421388,-128.20862,7.003102232,0.663663508,140.7007226,2.174517241,24.34113793
79300,79300,0.68179169,-7.46923065,-2.65865552,0.135855101,-0.18752823,0.23820648,-47.4737546,34.3161012,-128.818976,7.963927659,0.340982051,141.5122039,2.117293103,24.32584483
79400,79400,4.677961695,-9.4425893,-3.24829103,0.173938749,0.264728548,0.287314608,-46.347352,34.8806768,-129.504396,11.03058745,0.433336224,141.9018608,2.060068966,24.31055172
79500,79500,3.02170106,-7.68320645,-3.56767961,0.410162361,-0.287179569,-0.125058746,-46.6604604,34.0145872,-130.495606,8.998942194,0.519028291,142.7000711,2.002844828,24.29525862
79600,79600,-0.10859604,-13.18196735,-2.230273453,0.764788816,0.092583464,0.92002564,-45.5996704,33.8302606,-133.011784,13.45043763,1.232223667,144.623639,1.94562069,24.27996552
79700,79700,-3.480826525,-5.870673395,2.27867048,0.495860294,0.902771785,0.154845426,-44.2248526,34.0567018,-134.780274,7.39592731,1.103307493,145.8818779,1.888396552,24.26467241
79800,79800,3.83568118,-11.85001235,-0.10685196,0.557972695,-0.203344723,0.473521421,-42.7920532,34.00116,-136.95892,12.50960231,0.785165588,147.4618116,1.831172414,24.24937931
79900,79900,1.83963624,-9.5188416,0.85310362,0.36120912,-0.01857605,0.124429324,-42.580566,33.3993526,-138.291934,9.738475643,0.384086449,148.5035272,1.773948276,24.23408621
80000,80000,-0.340533448,-9.6969634,-0.242248534,0.254901118,0.14590149,0.361770632,-41.94107075,33.0127725,-139.43481,9.708234256,0.468154794,149.3016414,1.716724138,24.2187931
80100,80100,2.47600406,-9.9995972,0.532989508,0.220172118,0.46164246,0.414822388,-40.408707,33.07952825,-140.559005,10.31748938,0.65883869,149.9468161,1.6595,24.2035
80200,80200,2.67424622,-9.856662,0.98549806,0.081900026,0.315493768,0.331735228,-39.070511,33.12148925,-141.157535,10.26617417,0.465212634,150.1632861,1.602275862,24.1882069
80300,80300,1.8542328,-11.5464846,-1.41109924,-0.583035284,0.306112672,-0.40159607,-37.386705,33.96186875,-140.59028,11.77961338,0.777835483,149.3885987,1.545051724,24.17291379
80400,80400,-1.4188721,-11.0745882,-1.1616211,-1.33489992,0.51553955,-0.93934326,-40.598297,34.9849705,-137.5255575,11.22579967,1.71681991,147.5990581,1.487827586,24.15762069
80500,80500,2.61798396,-10.0582489,-1.049340836,-0.829113764,0.243481444,-0.688580324,-42.76237625,35.48622175,-135.4393,10.45450489,1.116138868,146.3958429,1.430603448,24.14232759
80600,80600,0.643431095,-7.37165447,-1.861444825,-0.320022585,-0.02593155,-0.561012259,-45.194245,35.86959875,-133.3011625,7.633139516,0.652262554,145.2527773,1.37337931,24.12703448
80700,80700,1.99459986,-7.23908165,-1.893776695,-0.032829286,-0.495766453,-0.136343383,-46.456145,35.612488,-132.1804075,7.744351478,0.517939784,144.5617487,1.316155172,24.11174138
80800,80800,2.74535825,-7.96021731,-2.9833718,0.21911316,-0.447137455,0.238846586,-46.84257625,35.8474725,-131.2171925,8.936540851,0.552876517,143.8653768,1.258931034,24.09644828
80900,80900,4.57722092,-10.36064005,-4.226496275,0.375110635,-0.263852696,0.049066162,-46.622467,35.75096125,-131.2217675,12.08966039,0.463074748,143.773947,1.201706897,24.08115517
81000,81000,0.29112318,-8.46198025,-0.271757515,0.659597777,0.351868439,0.139826205,-47.2297665,35.6822965,-130.923465,8.620429602,0.7855536,143.6831916,1.144482759,24.06586207
81100,81100,2.280468755,-8.2816362,0.393591285,0.392261503,0.767903107,0.148511505,-46.14105325,36.437988,-131.7703225,8.776949999,0.915087799,144.2922011,1.087258621,24.05056897
81200,81200,3.86560823,-11.3604633,1.29435116,0.53517153,-0.592541511,0.781489563,-44.63882325,37.308502,-132.8323375,12.14893867,1.129426935,145.0137432,1.030034483,24.03527586
81300,81300,-0.125534061,-9.7042708,-0.073696899,0.605906679,-0.195944213,0.194839474,-44.0353385,37.07580525,-134.3605025,9.716752258,0.671948779,146.1728345,0.972810345,24.01998276
81400,81400,1.24993439,-8.9559605,0.77397157,0.266830434,0.306861876,0.107284546,-43.40667725,37.499618,-134.86748,9.076875747,0.424472274,146.5594485,0.915586207,24.00468966
81500,81500,0.64360963,-9.67686,-0.044255067,0.394668581,-0.03050537,0.46340179,-41.753387,37.5896455,-136.03592,9.700803818,0.609717332,147.1809868,0.858362069,23.98939655
81600,81600,1.90343172,-9.4637767,0.254542545,0.222520445,0.262544254,0.52039185,-39.5877835,38.47808825,-136.3605475,9.661998125,0.624918596,147.1120766,0.801137931,23.97410345
81700,81700,1.669285042,-10.33939811,0.790263926,0.087660942,0.302607487,0.252992326,-37.3981475,39.48478725,-136.64856,10.50598736,0.404399308,147.073135,0.743913793,23.95881034
81800,81800,1.03469467,-13.5864715,-1.3173027,-0.634811398,-0.273014068,-0.382896423,-36.5972896,40.6581117,-134.394532,13.69635452,0.790787397,145.1015114,0.686689655,23.94351724
81900,81900,-1.220340725,-8.684047625,-1.558517425,-2.0646591,-0.253036495,-0.692630763,-38.5334785,43.101045,-127.3114035,8.908953291,2.19320312,139.8253946,0.629465517,23.92822414
82000,82000,1.125972775,-10.26122625,-0.47813417,-1.313377375,-0.726287825,-0.589290625,-39.539337,43.6994939,-119.894106,10.3444569,1.619480894,133.5954515,0.572241379,23.91293103
82100,82100,2.491271975,-7.6763878,-0.839664475,0.112209323,-0.728950485,-0.74403,-41.0090639,43.8981628,-115.580597,8.115052084,1.05432208,130.2600196,0.515017241,23.89763793
82200,82200,1.96035385,-8.8821605,-0.921363863,0.92713165,-1.706069975,-0.904609688,-42.8407291,44.6382142,-115.685122,9.146666977,2.142623709,131.1905714,0.457793103,23.88234483
82300,82300,1.61738965,-9.94549175,-1.890113825,0.585716265,-2.30740355,-0.74695588,-43.7898258,45.3999334,-115.195006,10.25913324,2.495962339,131.3340338,0.400568966,23.86705172
82400,82400,2.93958285,-9.00755275,-1.987083475,0.6485672,-1.767845175,-0.652416238,-44.7364812,46.2428285,-114.05365,9.684640229,1.99345862,130.9504222,0.343344828,23.85175862
82500,82500,2.28662112,-8.8051242,-3.06238098,0.68185425,-1.89386598,-0.202606202,-44.2547618,47.6504516,-113.734287,9.618500922,2.023170256,131.0138611,0.28612069,23.83646552
82600,82600,-0.479153464,-16.7277768,-4.6988128,0.73959656,-0.95941772,0.75400694,-43.2028194,49.7732543,-115.4409785,17.48476953,1.451668367,132.9312515,0.228896552,23.82117241
82700,82700,0.187152106,-10.3819456,0.850231944,0.96436766,-1.91730958,0.469369516,-40.6462096,51.4227294,-117.2616578,10.46980992,2.198175599,134.3384829,0.171672414,23.80587931
82800,82800,1.73930662,-9.41828,1.51940308,0.49308776,-0.499008164,-0.064541626,-39.0829482,52.964629,-118.986663,9.710436074,0.705489545,135.9800287,0.114448276,23.79058621
82900,82900,0.191696168,-9.424268,0.414245606,0.45836792,-0.545455932,0.108029173,-39.0391541,53.607178,-120.708468,9.436525613,0.721327828,137.7256364,0.057224138,23.7752931
83000,83000,-0.45640259,-9.8710324,0.257662964,0.50523988,-0.351577758,0.334930418,-37.8808602,54.2236332,-122.559812,9.886566311,0.7015806,139.2699663,0,23.76
83100,83100,1.97992556,-9.08878055,0.907325749,0.384380339,0.045449829,0.468409727,-35.7020568,54.930725,-124.98657,9.347298219,0.607728219,141.1163136,0.017666667,23.694
83200,83200,1.45320132,-10.0470002,0.72476806,0.23551636,0.078146363,0.352615354,-33.7846362,55.7705695,-126.705629,10.1776835,0.431639043,142.4995782,0.035333333,23.628
83300,83300,3.68244328,-11.6288546,1.59913332,-0.117089845,-0.098684694,0.202838132,-32.3178099,56.5318296,-127.4209596,12.30382211,0.275757894,143.0957423,0.053,23.562
83400,83400,0.789773552,-10.2447604,-1.2013672,-1.68878178,-0.488571164,-1.18797604,-35.41275,57.1662904,-123.180238,10.35353239,2.126709093,140.3435508,0.070666667,23.496
83500,83500,-0.069265746,-10.7078004,0.614392092,-1.67620848,0.110952756,-1.13236084,-41.8894956,55.9759519,-112.926025,10.72950474,2.026222097,132.8190616,0.088333333,23.43
83600,83600,1.24922482,-9.1348144,-0.497467038,-0.433264156,-0.58615724,-1.32177432,-47.865296,53.18756133,-106.7810057,9.238945577,1.514025573,128.5399807,0.106,23.364
83700,83700,-0.073632814,-6.903839205,-0.927588665,0.562659463,-0.67419356,-0.45523072,-51.07948225,52.25479165,-105.9374234,6.967621907,0.993224846,128.6954048,0.123666667,23.298
83800,83800,2.570280425,-9.33933265,-3.53631665,0.099906922,-0.96341172,0.23373184,-49.8439028,53.428498,-106.328126,10.3164897,0.99798722,129.0153482,0.141333333,23.232
83900,83900,3.9255234,-10.64249305,-3.391230005,0.010473632,-0.257357026,-0.078441621,-49.4203183,54.2408749,-106.582948,11.84205565,0.311922288,129.4001277,0.159,23.166
84000,84000,0.778698738,-6.30552597,-0.988404855,0.540175626,0.066963195,0.122353362,-50.409546,54.3904121,-106.923826,6.443233838,0.566018271,130.1236036,0.176666667,23.1
84100,84100,5.52101231,-18.05566155,-6.4505379,0.358236685,-0.485968778,0.762155152,-47.152101,57.6660161,-110.9553522,19.99117025,0.98586309,133.6409685,0.194333333,23.034
84200,84200,-2.657215895,-6.849188245,0.980761725,0.613307945,-0.670419294,0.534186559,-47.1252441,58.6717225,-113.578489,7.447628791,1.089497833,136.2475817,0.212,22.968
84300,84300,-0.285070327,-9.495311368,-0.571593438,0.746452721,0.370452881,0.097861039,-44.2588812,60.659639,-117.4746682,9.542778401,0.848615884,139.4228759,0.229666667,22.902
84400,84400,1.28058164,-9.2340533,1.20193019,0.317744445,0.57796478,-0.010968018,-44.4343571,61.1363221,-120.0801087,9.404188789,0.659645144,141.8848358,0.247333333,22.836
84500,84500,1.21971897,-9.8414622,0.251794434,0.318014526,0.311551652,0.258065793,-43.8562009,61.6929632,-122.534177,9.920016044,0.514892355,144.0279054,0.265,22.77
84600,84600,1.988184355,-9.50160855,1.020092002,0.237643436,0.181634524,0.382179264,-42.2210692,62.3547361,-124.448395,9.761528376,0.485327117,145.4586153,0.282666667,22.704
84700,84700,1.0227356,-9.741974,0.88804626,0.14283752,0.17253113,0.27676392,-40.2865609,63.0105593,-125.383149,9.83568359,0.356044682,145.9942496,0.300333333,22.638
84800,84800,2.7369843,-9.53009,0.7671509,-0.003112793,0.7243347,0.24053955,-38.9952095,63.4896855,-126.277466,9.944959476,0.763236348,146.6204822,0.318,22.572
84900,84900,2.3479156,-13.713959,-0.52931213,-0.52934265,-0.27700806,-0.2026062,-38.652922,63.79017089,-124.7006874,13.92356098,0.630861616,145.3051827,0.335666667,22.506
85000,85000,-1.93004761,-9.39859145,-1.314612615,-1.792011985,-0.104804991,-1.138072983,-43.9250947,62.4101257,-115.2598573,9.684664836,2.126142368,138.2398982,0.353333333,22.44
85100,85100,1.855245965,-10.81488878,-0.72965395,-1.123179655,-0.339162444,-0.861997225,-48.5322576,58.8681796,-106.762772,10.99778825,1.456464225,131.2230374,0.371,22.374
85200,85200,0.436450198,-7.843075565,-0.954469285,-0.01364975,-0.339119719,-0.68793945,-52.22442645,55.968551,-102.4472026,7.914527086,0.768316055,127.8881837,0.388666667,22.308
85300,85300,1.508215375,-7.986971315,-2.741623675,0.216397096,-0.779554745,-0.437864685,-53.6128234,55.02761845,-101.969146,8.578180212,0.920402119,127.6718311,0.406333333,22.242
85400,85400,1.902181255,-7.45917053,-1.60030521,0.270027911,-0.100231173,0.093638612,-53.8945014,54.69451905,-101.1712645,7.862572907,0.303909483,127.0111222,0.424,22.176
85500,85500,5.97525025,-11.4586186,-4.2409332,0.382196041,-0.329743967,0.001605224,-51.8346401,56.47895785,-102.804719,13.60110399,0.521496307,128.2400644,0.441666667,22.11
85600,85600,-0.75281218,-7.55416105,1.750329624,0.56010435,0.506178265,0.29454956,-53.69399975,56.41113305,-104.4062061,7.803080314,0.831511869,130.2537264,0.459333333,22.044
85700,85700,3.457040422,-8.33059876,1.52287289,0.416183473,1.31023256,0.240539552,-50.2429196,59.5089722,-108.0651854,9.24659492,1.396931507,133.205904,0.477,21.978
85800,85800,3.68842773,-11.3832019,1.41358643,0.475520322,0.219087221,0.687315367,-48.4814444,61.5609732,-111.928711,12.06215247,0.867472193,136.6321227,0.494666667,21.912
85900,85900,0.309381101,-9.7430557,1.006445354,0.675256344,0.050132752,0.299024976,-47.1783448,62.7035528,-115.056764,9.810483227,0.740658951,139.2683392,0.512333333,21.846
86000,86000,0.61571353,-8.9002929,1.05396577,0.243505856,0.54217987,0.144569393,-46.2420654,63.5433972,-117.846982,8.985648834,0.612482197,141.6474804,0.53,21.78
86100,86100,1.161826298,-9.67536325,0.600332646,0.335590376,0.200437161,0.348135389,-44.8529054,64.0564,-120.1654064,9.764298571,0.523609408,143.3694868,0.547666667,21.714
86200,86200,1.79545977,-9.4203237,1.1095192,0.09063721,0.24454422,0.365821088,-42.8347776,64.99786,-121.5237436,9.655127986,0.449274946,144.3176471,0.565333333,21.648
86300,86300,1.1922928,-9.7067788,0.689030456,0.072155762,0.163528447,0.343130495,-40.791931,65.59509,-122.237242,9.804732864,0.387249147,144.5988446,0.583,21.582
86400,86400,3.66341854,-11.37895925,0.670902251,-0.1479805,0.252899171,0.160062412,-39.078368,66.285094,-122.335812,11.97348032,0.351031665,144.5229852,0.600666667,21.516
86500,86500,1.224136386,-10.40618405,-1.080514515,-1.705562565,-0.430563357,-1.086717235,-41.9030758,65.099182,-115.652468,10.54334523,2.068985374,139.17728,0.618333333,21.45
86600,86600,0.343733224,-10.58270563,0.799224871,-1.566536675,0.53141176,-0.916917419,-47.8518668,61.430664,-104.640504,10.6273318,1.892941641,130.4375168,0.636,21.384
86700,86700,0.84100342,-8.04042046,-1.5506775,-0.379785158,-0.633667006,-0.92570496,-51.856079,57.470092,-98.72101,8.231876008,1.189154866,125.4512036,0.653666667,21.318
86800,86800,1.04786684,-7.8000458,-0.6949951,0.771554566,-0.030087281,-0.490866088,-54.3762212,56.5054322,-99.962462,7.90388097,0.919756374,127.0518915,0.671333333,21.252
86900,86900,2.25023806,-8.6844604,-2.83230286,0.370581056,-0.600421126,0.146160888,-53.9056392,58.0426028,-101.255798,9.409894775,0.721137337,128.5598884,0.689,21.186
87000,87000,5.00883486,-9.878455,-1.98618772,0.154553224,-0.046917725,0.048367308,-52.722168,59.002686,-101.66321,11.2530743,0.217836408,128.8268304,0.706666667,21.12
87100,87100,-0.393920908,-7.45360416,-0.322216794,0.380596924,0.048962402,0.03579712,-52.6080328,59.456482,-101.677248,7.525355387,0.412275808,129.0002334,0.724333333,21.054
87200,87200,3.71261608,-10.9579922,-0.58126834,0.31881409,0.78953248,0.543084712,-48.131714,62.5872796,-104.500122,11.64326815,1.030252671,130.9740645,0.742,20.988
87300,87300,1.54443056,-9.8978424,1.4133423,0.62774046,-0.09059143,0.687951672,-46.098938,64.506836,-108.910214,10.15441219,0.93784294,134.714106,0.759666667,20.922
87400,87400,0.6956215,-9.9436915,0.85124588,0.64110564,0.031917573,0.248268128,-43.90609715,66.0804715,-112.2499095,10.02045079,0.688636269,137.4573086,0.777333333,20.856
87500,87500,0.264068605,-9.18622575,0.8293991,0.256813048,0.44177627,0.070903778,-43.6735534,67.0181258,-115.7157128,9.228702558,0.519153284,140.6733828,0.795,20.79
87600,87600,1.026325263,-9.53697225,0.680656425,0.22965622,0.31847,0.296741488,-42.34802235,67.2834795,-117.5795005,9.618089854,0.492313476,141.9347462,0.812666667,20.724
87700,87700,1.97981645,-9.2580525,1.2142677,0.11141205,0.280391683,0.402732848,-40.01869205,68.2232669,-119.0901933,9.546640264,0.503249541,142.9632385,0.830333333,20.658
87800,87800,1.574291225,-9.8227885,0.69561767,0.073059083,0.24017334,0.285018928,-37.91275035,69.1694645,-119.6219645,9.974171968,0.380664075,143.2873089,0.848,20.592
87900,87900,3.3178711,-11.52775163,1.476726525,-0.285934448,0.19462967,0.042137146,-36.84425385,69.365233,-120.3444668,12.09293434,0.394248209,143.7074741,0.865666667,20.526
88000,88000,0.105389405,-9.9427336,-0.96482236,-1.50939029,-0.428923036,-1.008259589,-39.78523255,68.3845517,-114.1330725,10.00429793,1.868119248,138.8761038,0.883333333,20.46
88100,88100,0.217433182,-11.0245578,0.065884398,-1.50895844,0.326568608,-0.62988129,-44.73686225,64.5761111,-104.8386373,11.04555619,1.668811966,131.0078557,0.901,20.394
88200,88200,1.04870606,-8.7130749,-1.03485112,-0.45243378,-0.319621278,-0.873612968,-48.65730295,61.21109015,-99.866713,8.837035232,1.038777934,126.8374914,0.918666667,20.328
88300,88300,0.219471739,-7.80447401,-1.6015579,0.278654472,-0.478558349,-0.430249026,-51.3882452,59.70809915,-99.080737,7.974488685,0.702641198,126.5813142,0.936333333,20.262
88400,88400,2.85286103,-8.4085236,-2.4650284,0.207070924,-0.084095765,0.134553529,-51.60079865,59.9696354,-100.0373825,9.219903032,0.26252605,127.5401657,0.954,20.196
88500,88500,5.22239535,-10.4163057,-3.66548309,0.31136475,-0.361598205,0.022164917,-50.4283146,60.9543608,-100.661241,12.21510794,0.486723032,128.0279667,0.971666667,20.13
88600,88600,-0.418760664,-6.00344009,-0.133853147,0.29788971,0.517620854,-0.091969295,-52.1507258,59.69245895,-100.8113848,6.098030576,0.666326644,128.2415563,0.989333333,20.064
88700,88700,5.225273895,-13.51338335,-2.787462613,0.408879087,0.18206405,0.554477693,-48.2321163,62.48207075,-104.2224126,14.84994794,0.838979697,130.7393488,1.007,19.998
88800,88800,-0.724137845,-8.4415754,0.771639237,0.454263314,-0.022834015,0.68923189,-47.890167,63.46397425,-108.2581318,8.667247311,0.82825653,134.3174876,1.024666667,19.932
88900,88900,0.337931825,-9.6746435,0.325956721,0.560206599,0.253283691,0.12411804,-46.21894825,64.38034055,-112.1570572,9.692525931,0.632812278,137.3325918,1.042333333,19.866
89000,89000,0.810121172,-8.9823011,0.462126935,0.353966526,0.40939179,0.013641357,-46.1527255,64.67330825,-115.4433457,9.043765246,0.541746152,140.1425774,1.06,19.8
89100,89100,1.229950675,-9.43569965,0.54951554,0.326432803,0.386702729,0.325825503,-45.481873,65.187075,-117.97104,9.53148313,0.603004161,142.2505422,1.077666667,19.734
89200,89200,2.598771695,-9.4179904,0.585663606,0.235932159,0.197348025,0.483638771,-43.009185,65.75012,-120.29114,9.788649435,0.573185887,143.6764403,1.095333333,19.668
89300,89300,1.31577452,-9.8791658,0.9816681,0.156045534,0.054931639,0.269305422,-40.6738275,66.07437,-121.5660095,10.02729568,0.325705098,144.2172322,1.113,19.602
89400,89400,3.28764648,-10.8507326,1.67191466,-0.21147766,0.570941162,0.136575318,-40.0886535,65.55252,-122.289275,11.4641829,0.634770872,144.4261531,1.130666667,19.536
89500,89500,0.71219788,-11.3147278,-2.24404602,-1.22666626,-0.54907837,-0.76485292,-42.1073915,64.1265865,-118.208313,11.55869441,1.562587224,140.9219351,1.148333333,19.47
89600,89600,-0.549307228,-10.3039,-0.213284306,-1.82236636,0.517245488,-0.76250916,-46.9085685,60.0868225,-108.322908,10.34727585,2.043945124,132.4596563,1.166,19.404
89700,89700,1.685202,-9.618677,-0.97583312,-0.755819692,-0.245907592,-1.04607848,-51.331329,55.15976,-101.698302,9.825999127,1.318269502,126.5712641,1.183666667,19.338
89800,89800,0.6425293,-7.24266964,-1.67326658,0.223797606,-0.420605472,-0.518984988,-53.6048885,52.564239,-100.693513,7.463179849,0.708358464,125.6013401,1.201333333,19.272
89900,89900,1.85010761,-7.876898735,-2.53296283,0.313226318,-0.341299435,0.158892059,-53.5141,52.899169,-101.58081,8.490758827,0.497694338,126.4152214,1.219,19.206
90000,90000,5.209467275,-10.53116535,-4.247026035,0.445156099,-0.186622618,0.152767947,-52.1667485,54.225921,-103.5652175,12.49868991,0.514732543,128.0145872,1.236666667,19.14
90100,90100,0.119640365,-5.61353305,-0.1258888,0.290901943,0.546007553,-0.224438477,-53.382111,53.380585,-103.50952,6.027340644,0.710480753,128.1146436,1.254333333,19.074
90200,90200,5.60894097,-13.4924355,-3.904780535,0.396524812,0.218976595,0.436717969,-49.951935,56.074524,-107.102965,15.23557109,0.889939849,130.8075647,1.272,19.008
90300,90300,-0.737728135,-8.042929265,1.31134721,0.546887217,-0.32862091,0.711017618,-49.8344425,57.038115,-110.95581,8.452822484,0.956895702,134.344051,1.289666667,18.942
90400,90400,-0.67200622,-8.92543415,0.087311565,0.570746585,0.346543123,0.216095734,-47.7661135,58.51059,-114.80026,8.978072638,0.718333223,137.4201044,1.307333333,18.876
90500,90500,0.666529847,-8.85348835,0.574294268,0.346934512,0.772221368,0.002991486,-47.2969055,58.9462285,-117.614748,8.903908899,0.847296031,139.8034432,1.325,18.81
90600,90600,1.08737183,-9.350525,0.3212204,0.319664,0.39410401,0.414176935,-46.04721,59.613037,-120.37964,9.42079171,0.656033835,142.0049933,1.342666667,18.744
90700,90700,2.08396145,-9.315811,0.585182185,0.290374755,0.38824463,0.50739287,-43.3815,60.7910155,-122.48001,9.567768366,0.702446136,143.4539283,1.360333333,18.678
90800,90800,1.42315675,-9.7647245,0.518745415,0.14389801,0.49743652,0.14893341,-42.2203065,60.839081,-124.3507375,9.882262276,0.539548562,144.7310516,1.378,18.612
90900,90900,3.35347745,-13.09446,0.508567801,-0.486740115,0.196502687,-0.3346939,-42.28858915,60.4827116,-123.9013665,13.54172905,0.647136721,144.2156977,1.395666667,18.546
91000,91000,-1.016532885,-10.0460435,-1.77669525,-2.0105972,-0.034126282,-1.1874466,-46.86531065,58.3093261,-115.539856,10.2880674,2.336314009,137.6495924,1.413333333,18.48
91100,91100,3.0422363,-11.0725555,0.166801453,-1.4848938,0.11341095,-0.7901001,-51.00181575,54.0765395,-106.7150103,11.49313485,1.701432115,130.0542584,1.431,18.414
91200,91200,0.737164317,-6.90335157,-1.148634335,-0.207904054,-0.540659334,-0.850498972,-54.5027165,49.9071505,-102.6790605,7.038800285,1.035812194,126.5083095,1.448666667,18.348
91300,91300,0.286685181,-6.56277695,-1.76071702,0.375006106,-0.519569397,-0.164733886,-55.6903072,48.47930985,-102.570877,6.804141479,0.667708072,126.3822538,1.466333333,18.282
91400,91400,4.88164367,-9.36979825,-4.05232537,0.456661223,-0.288677984,0.4535492,-53.9159394,49.91645775,-103.3506798,11.32381747,0.70542033,126.8071943,1.484,18.216
91500,91500,3.86177525,-7.744910635,-3.91477425,0.368666839,-0.439035798,-0.423857118,-53.5272224,50.4747774,-103.854216,9.534438143,0.73579183,127.273846,1.501666667,18.15
91600,91600,3.064679728,-14.6921685,-6.262233075,0.479084788,-0.947111528,0.950862875,-51.991272,51.91978435,-106.0616295,16.43386472,1.440528272,129.0332048,1.519333333,18.084
91700,91700,-2.069985215,-7.511240175,0.389340964,0.53053589,-0.079565424,0.697917163,-50.395126,53.5498049,-109.471891,7.887043921,0.928695092,131.877631,1.537,18.018
91800,91800,-0.153540765,-9.72168795,-0.593714893,0.667901614,0.270701591,0.062480926,-48.3187868,54.94064365,-112.086794,9.823912712,0.7314137,133.8530981,1.554666667,17.952
91900,91900,1.594941735,-9.34472355,0.111014551,0.445741272,0.213325501,0.123261261,-47.11334275,55.6177519,-114.7214515,9.488959315,0.530252647,135.9193748,1.572333333,17.886
92000,92000,1.07701799,-9.4868781,0.609787757,0.38422165,0.058924103,0.36091843,-46.47750865,56.1565395,-116.5477025,9.567951966,0.530838201,137.4668105,1.59,17.82
92100,92100,1.590993465,-9.5928793,0.327505495,0.243927765,0.211735537,0.450880437,-44.29298415,56.85913095,-118.80638,9.735249647,0.557229792,138.959964,1.607666667,17.754
92200,92200,1.585963435,-9.7918959,1.15201723,0.129619599,0.067765807,0.272075653,-42.75734015,57.0775594,-120.0144953,9.989712673,0.310110549,139.6048632,1.625333333,17.688
92300,92300,2.778757505,-10.92693505,0.558909598,-0.112457273,0.392134099,0.094975279,-41.9306946,57.3093412,-121.0731508,11.29145581,0.430472776,140.3611482,1.643,17.622
92400,92400,0.803360767,-11.65637735,-1.24943469,-1.381717675,-0.377310945,-1.118782027,-44.40544085,55.75256415,-116.7523203,11.7608991,1.818660812,136.7921909,1.660666667,17.556
92500,92500,-0.717493437,-10.49860315,-0.249308778,-1.76904983,0.683219146,-0.733801274,-49.12994405,51.7220307,-108.0096438,10.58187924,2.035288856,129.4422727,1.678333333,17.49
92600,92600,1.381727524,-8.639577105,-0.963106668,-0.647423203,-0.377259911,-0.833178871,-51.9950874,47.83325185,-102.7471175,8.815903884,1.125545134,124.6943717,1.696,17.424
92700,92700,0.455545042,-7.2326203,-1.40032958,0.410220334,-0.4297699,-0.41565552,-53.540956,46.109009,-101.632691,7.387446101,0.731015009,123.7816873,1.713666667,17.358
92800,92800,2.54352416,-8.6387332,-2.96732788,0.2659729,-0.316003418,0.10802307,-52.8219604,46.6925052,-101.763608,9.485477534,0.433071311,123.7990847,1.731333333,17.292
92900,92900,4.6197752,-9.9517088,-3.44593504,0.39423523,-0.329208376,0.087789918,-51.8847656,48.3041392,-103.391116,11.50406409,0.530992201,125.3596794,1.749,17.226
