Unnamed: 0,st,ax,ay,az,gx,gy,gz,mx,my,mz,AccTotal,GyrTotal,MagTotal,lat,lng
14000,14000.0,1.342171485,-10.4597605,-1.313299595,-1.52882922,-0.6392578125,-0.61635359,-40.415954799999994,40.9121706,-130.84106,10.628480607050907,1.7682452132901036,142.922561778864,33.19,32.63
14100,14100.0,1.35169828,-11.6739168,-0.17502975732999998,-1.36558306,-0.004300693500000008,-0.833879849,-43.236389200000005,41.244506,-125.14953799999999,11.763559558730016,1.6140427156532189,138.68336814807205,33.12965454545454,32.61387272727273
14200,14200.0,2.004670005263158,-8.254671842105264,-0.9021188863157894,-0.5579986584210526,-0.9096133789473684,-0.9224395894736842,-46.73156779999999,39.1430664,-120.49896000000001,8.544172165016885,1.412685568904901,135.0409142932022,33.06930909090909,32.59774545454545
14300,14300.0,0.099041744,-5.7877166,-1.89951168,0.13942260720000002,-0.60170593,-0.38475952399999996,-48.7057496,38.066101200000006,-118.468627,6.093871759492306,0.7318258562566397,133.62698786542174,33.00896363636363,32.58161818181818
14400,14400.0,3.95969236,-8.1498352,-3.83067934,0.56915892,-0.529266362,0.44869996,-48.380127,39.011841600000004,-118.563846,9.837503136622058,0.8985510720060821,133.86542925204537,32.948618181818176,32.565490909090904
14500,14500.0,3.99177552,-10.046286199999999,-4.8352906,0.5005493400000001,-0.159405516,0.0289794916,-47.37884520000001,39.4879152,-120.48706000000001,11.85042592303968,0.5382187125166221,135.35583124216976,32.88827272727272,32.54936363636363
14600,14600.0,-2.74406434,-14.1339054,-3.28097228,0.914941412,0.49061278,1.06569824,-46.6580214,40.27221640000001,-123.36547920000001,15.012837661038375,1.5433934646305316,137.90611583174714,32.827927272727266,32.533236363636355
14700,14700.0,-1.97984316,-5.412307599999999,3.04187316,0.91963194,0.562625124,0.0462371816,-44.742430600000006,40.746154,-126.017758,6.702078678426697,1.1895743249055604,139.79498004452523,32.76758181818181,32.51710909090908
14800,14800.0,0.986819462,-9.5988008,-0.41511536,0.51481934,0.521936036,0.007891846399999996,-44.1085816,40.845032200000006,-127.79266399999999,9.676336637703768,0.737699524236228,141.22642558259452,32.707236363636355,32.50098181818181
14900,14900.0,2.81287534,-9.051248,1.11573792,0.327548222,0.86495056,-0.122500607,-44.1021716,40.5718984,-130.371094,9.545002496073833,0.9332426462803242,143.48417942910058,32.6468909090909,32.48485454545453
15000,15000.0,2.64552312,-9.5001651,0.357736202,0.307308962,0.281192006,0.154254148,-43.75305175,40.28587375,-132.60765,9.868877991621584,0.44497127894484795,145.33438607781247,32.586545454545444,32.46872727272726
15100,15100.0,2.37785038,-9.572707800000002,0.441052254,0.303686526,0.0589752196,0.266110226,-42.6616665,40.639115,-133.486175,9.873678506696976,0.4084186006648789,145.91144831360006,32.52619999999999,32.45259999999998
15200,15200.0,2.20210874,-9.2866088,0.571304334,0.181817628,0.22685242,0.284222414,-41.617585,40.8260345,-134.39903,9.56146798403736,0.407563542505241,146.4988325004987,32.46585454545453,32.43647272727271
15300,15300.0,2.65269776,-9.39841,0.653662104,0.08509216600000001,0.35511474600000004,0.23969727,-40.4537205,41.34330775,-135.1627325,9.787749618784208,0.4370819452709588,147.0196734562954,32.40550909090908,32.42034545454543
15400,15400.0,3.51269532,-10.816738800000001,1.8234650000000001,-0.0555145266,0.14909057439999998,0.18004150600000002,-39.38331625,41.50543175,-135.71701000000002,11.52038875670143,0.2477990301845532,147.2850280180408,32.34516363636362,32.40421818181816
15500,15500.0,1.32702634,-10.9864836,-2.88472902,-0.78011476,-0.434881596,-0.33746948200000004,-40.3549195,42.237854,-134.1499325,11.438327812920495,0.9632270700476844,146.31757202441196,32.28481818181817,32.388090909090884
15600,15600.0,-1.19382022,-11.1677278,-0.007855224800000001,-2.0603485,0.0470397952,-0.7573974400000001,-43.125915,42.69752475,-127.29950249999999,11.236923659724898,2.196979687828153,141.025663579721,32.22447272727271,32.37196363636361
15700,15700.0,2.5024132789473685,-9.978939052631578,-0.6686160389473684,-1.1445071157894735,-0.6401568,-0.9930299263157896,-46.282197499999995,41.4123535,-121.43325800000001,10.316260567098462,1.648567553706693,136.39345944704655,32.164127272727264,32.35583636363633
15800,15800.0,0.8457939095,-6.72959275,-1.887367995,0.07764587225,-0.83409501,-0.5922782910000001,-48.501205,39.70756525,-118.535995,7.042788317451104,1.0297633676684883,134.08905636704523,32.1037818181818,32.339709090909054
15900,15900.0,2.00243836,-7.933398359999999,-3.14474184,0.422576912,-0.169201662,0.017266845999999995,-49.450684,39.05105625,-118.73207125,8.784583211565458,0.4620545294412796,134.41599691353645,32.043436363636346,32.323581818181786
16000,16000.0,3.2075026526315784,-8.316921157894736,-3.4576071157894734,0.2471803321052632,-0.2479143647368421,0.26740305315789475,-48.63281375,40.022278,-119.69528125,9.562696482386055,0.4439031481177892,135.25492691866398,31.98309090909089,32.30745454545451
16100,16100.0,4.595416995,-8.44600446,-3.915195465,0.181074525,-0.5759246965,-0.23786468649999998,-48.41422900000001,39.99824525,-119.9806235,10.38350395874376,0.6550656367201408,135.42211150623666,31.922745454545435,32.29132727272724
16200,16200.0,-1.08956147,-9.3912275,-1.4271393,0.9764023,0.339248655,0.614990235,-48.25058,40.19126875,-121.10633999999999,9.56247037168227,1.2088979743389843,136.4199701046675,31.86239999999998,32.27519999999996
16300,16300.0,3.0841417368421054,-7.973486,1.135220173684211,-0.1356506342105263,1.4038093736842103,0.13059756684210527,-45.687104999999995,41.41998275,-124.00322,9.263040022390982,1.434668756843886,138.49094509115866,31.80205454545452,32.259072727272695
16400,16400.0,3.668318815,-11.82906485,0.09563064749999994,0.8323280325,-0.1079521165,0.6758155845,-44.048768,41.8997186,-126.47888,12.44952074701169,1.0811412328732035,140.33130059912614,31.741709090909072,32.24294545454541
16500,16500.0,1.5726173400000003,-9.74108035,0.6865196069999999,0.4594879125,0.054655456000000005,-0.0734939585,-43.10569775,41.9456475,-128.71742,9.909771619804863,0.4699524796202638,142.07646006933618,31.68136363636361,32.22681818181814
16600,16600.0,0.67724612,-8.4007444,0.7532623199999999,0.216763304,0.288858032,-0.02470703280000001,-43.47915675,41.5531155,-130.49126,8.464135661745749,0.3666107957059419,143.68394285361668,31.62101818181816,32.210690909090864
16700,16700.0,1.71561586,-9.42666,0.150399778,0.36994934,0.428826904,0.343029786,-42.3408505,41.55387875,-132.121275,9.583832778163726,0.66264511808435,144.83012120073582,31.560672727272703,32.19456363636359
16800,16800.0,2.9967468,-9.3905056,0.507620238,0.265551762,0.09433899,0.17918700999999998,-41.03279075,41.6473385,-133.59756750000003,9.877371679717363,0.33843295899293663,145.83048732685532,31.50032727272725,32.178436363636315
16900,16900.0,2.16716004,-9.689303599999999,0.8880493,0.10469971,0.156341552,0.34110718799999995,-39.842224,41.92771875,-134.35745,9.976183669964195,0.3927991724015071,146.27807740482075,31.439981818181792,32.16230909090904
17000,17000.0,3.75044248,-10.0745362,0.60003051,-0.10749817,0.292266848,0.014282226439999997,-38.8454425,42.20771775,-134.792705,10.767404753724787,0.3158907070127491,146.4907898294658,31.379636363636337,32.146181818181766
17100,17100.0,1.656594065,-12.616699325,-1.2434425345,-0.8505744975,-0.728095226,-0.587850965,-39.39857425,42.55905225,-133.06999000000002,12.793945125901187,1.2653719587883117,145.15953585998278,31.319290909090878,32.130054545454485
17200,17200.0,-2.37937618,-10.30736825,0.16506271500000005,-2.072115315,0.05524215699999999,-0.357815554,-42.30957025,42.82646225,-125.25329599999999,10.589520414236837,2.110136575452521,138.9700772929178,31.258945454545426,32.11392727272722
17300,17300.0,2.255262745,-9.69002285,-0.8819816525,-1.09846878,-0.4484146075,-0.596487436,-43.9575195,42.407227500000005,-119.412615,9.991644378336083,1.3320089246437692,134.12716399229748,31.198599999999967,32.09779999999994
17400,17400.0,0.79677889,-6.78908474,-1.89903948,0.2095191945,-0.50343551,-0.5069549609999999,-45.89386,41.581345500000005,-117.3816675,7.102578697760529,0.7487250989495334,132.71690901107593,31.138254545454515,32.081672727272675
17500,17500.0,1.405920385,-7.715830900000001,-2.25822755,0.6143180739999999,-0.17170944300000002,-0.1415130625,-46.852492,41.38069150000001,-118.74351499999999,8.16745782594535,0.6550452067185056,134.19223537400455,31.077909090909056,32.06554545454539
17600,17600.0,5.21107864,-9.97259745,-4.912863275,0.178677367,-0.1802345261,0.08065261695,-46.64116,41.83311449999999,-119.75746200000002,12.28268675357553,0.2833002716348826,135.1564653371633,31.017563636363608,32.049418181818126
17700,17700.0,1.909781635,-5.96482391,-2.744012465,-0.0205192555,-0.13607788899999995,-0.408411401,-47.51167375,41.21856675,-118.8400275,6.881593267491352,0.5246654843993173,134.45968413478516,30.957218181818146,32.033290909090844
17800,17800.0,1.444832629,-14.283239300000002,-4.0432205450000005,0.9214355475,0.2308547965,0.872994995,-46.2061027368421,42.38698852631579,-121.41723894736843,14.939195702139092,1.2926245132029417,136.65256113860923,30.89687272727269,32.01716363636357
17900,17900.0,-2.62101057,-6.210653755,2.4038833100000003,0.39258804700000005,0.851367935,0.29449768649999997,-44.8130796,43.07586679999999,-123.9468395,7.198102569831178,1.0101474525607026,138.65998807394652,30.83652727272724,32.00103636363629
18000,18000.0,2.985018145,-11.0968615,-0.3190986525,0.645693185,0.01487121549999998,0.13524017359999999,-43.0244447,43.4758006,-126.689149,11.54660759135558,0.6800045342511878,140.68215592871667,30.776181818181787,31.984909090909024
18100,18100.0,2.68849031,-9.967155300000002,-0.1329574558,0.44930877399999997,0.2146087632,0.01940307635,-43.1147768,43.5412598,-128.602597,10.32707335078178,0.5145052701842162,142.45481566020206,30.715836363636328,31.968781818181753
18200,18200.0,1.61504974,-9.1376815,0.416633604,0.24712371800000002,0.253921511,0.165873716,-42.996368700000005,43.44375720000001,-130.246428,9.28876826837206,0.3920550074806932,143.87560225290184,30.655490909090872,31.95265454545448
18300,18300.0,1.80287779,-9.5151333,0.29501037399999996,0.341822826,0.34339446799999995,0.373594666,-41.6491695,43.603668,-131.837921,9.690008270499114,0.6119043706436199,144.97313740323455,30.595145454545413,31.93652727272721
18400,18400.0,2.58518829,-9.7349134,1.09311983,0.19886779899999998,0.157090758,0.312982182,-40.298309,43.6947632,-132.773593,10.131928654292626,0.4028316708492351,145.47217176550404,30.53479999999996,31.920399999999944
18500,18500.0,2.83035125,-10.035147,0.212167358,0.004026794799999997,0.438844306,0.196763616,-39.116058,44.0347292,-134.155887,10.432915079544848,0.4837181766653664,146.51597165027113,30.474454545454503,31.904272727272673
18600,18600.0,3.45295874,-13.2107041,-0.7480270265000001,-0.47629852200000006,-0.32974701149999996,-0.18481597600000002,-38.9666749,44.2094426,-133.351596,13.691985345936356,0.6139866259230085,145.79330699861572,30.41410909090905,31.8881454545454
18700,18700.0,-1.6285552625,-10.14779675,-2.005931875,-2.306480425,-0.6421279925,-0.783172605,-42.63964168421053,43.93125784210525,-126.05920421052632,10.489285630690077,2.521115684498775,140.14516354191665,30.353763636363592,31.872018181818127
18800,18800.0,2.805511475,-10.977688,0.15841675074999995,-1.3357544,-0.270622256,-0.81939315,-44.39613335,42.2274777,-118.74115049999999,11.343072984981227,1.6030302431992558,133.6185015478477,30.293418181818144,31.855890909090856
18900,18900.0,-0.7280349650000001,-6.139900225,-1.2113647325,0.004085542500000011,-0.989940675,-0.6476249749999999,-47.193908,40.2418519,-115.70876840000001,6.317020331865282,1.1956690525817617,131.28318001389596,30.23307272727268,31.83976363636359
19000,19000.0,-0.04089355750000001,-7.0045052000000005,-1.6013145249999998,0.49836733,-0.094322205,0.153995515,-47.30903675,39.962157700000006,-115.5319235,7.193647404638439,0.5343576429069568,131.0830076926735,30.172727272727233,31.823636363636318
19100,19100.0,5.62468715,-10.53924925,-4.79428105,0.50395965,0.2119407625,0.16118622,-46.57936205,40.7257075,-117.8203594,12.873094301537789,0.5719429609736147,133.0786515412731,30.112381818181767,31.807509090909047
19200,19200.0,2.456859625,-6.48646555,-4.056274500000001,0.16093826,-0.2365341195,-0.5679931675,-47.2920226,39.8120885,-117.937243,8.047321005702809,0.6640018791166648,133.15711305160792,30.052036363636322,31.79138181818177
19300,19300.0,0.62170029,-15.81337775,-4.406425575,1.141525275,0.2697372425,1.024841285,-46.55525255,40.716705100000006,-121.16119350000001,16.47522751573632,1.5600063104258282,136.03494802366598,29.991690909090863,31.7752545454545
19400,19400.0,-3.5075807200000004,-4.51064764,5.07695314,0.389550782,1.00131224,0.1014251692,-45.244294000000004,40.468674,-123.54843000000001,7.75895970976503,1.1049051436751791,137.65555751453022,29.93134545454541,31.75912727272723
19500,19500.0,4.29488836,-11.3398684,-0.5376922699600001,0.74982298,0.095193486,0.121871948,-43.4436036,41.153565,-125.63537509999999,12.16782935921006,0.8106262009922612,139.15901395891657,29.87099999999995,31.742999999999963
19600,19600.0,2.3831146,-9.797762800000001,0.480325338,0.3793213,0.52705688,-0.125268558,-44.067383,40.408325,-127.81676999999999,10.09595298130624,0.6651327878517556,141.1095094846808,29.810654545454497,31.726872727272692
19700,19700.0,1.48672486,-9.5004032,0.301715092,0.354177852,0.45610963,0.26973572,-43.45733595,40.4099273,-128.807679,9.622043766157002,0.6377886368224612,141.82009746970118,29.750309090909038,31.71074545454541
19800,19800.0,2.0632476000000004,-9.0857302,0.549511716,0.24786377,0.319967654,0.3990509,-41.9670106,40.5616755,-130.9132325,9.334666638547422,0.568814275175145,143.33453711611497,29.689963636363586,31.694618181818146
19900,19900.0,2.20786132,-10.2268038,0.42645568799999994,0.156890872,0.37961426,0.249069214,-40.643614,40.87707525,-132.22869699999998,10.471435232038617,0.4815478269858416,144.24725843229982,29.629618181818127,31.678490909090876
20000,20000.0,3.36558073,-10.1819093,-0.06794891385,-0.1376022322,0.447369381,0.043638611050000005,-39.89425665,40.9397123,-132.5711785,10.72410829353938,0.4714322556565987,144.37013136508259,29.56927272727268,31.662363636363608
20100,20100.0,3.40071487,-11.81500035,-1.90790255,-1.5226517,-0.6536857845,-0.7227752729999999,-40.6108093,40.965728799999994,-129.92660700000002,12.444544544848382,1.8079978698434933,142.1572170398834,29.508927272727217,31.646236363636326
20200,20200.0,-1.281517024,-10.2996491,0.2499405000000001,-1.993929315,0.22792129749999995,-0.5718254105,-43.55079665,40.3434755,-122.2325881,10.408681953571387,2.091615631508497,135.8865621176134,29.44858181818177,31.630109090909066
20300,20300.0,1.4301559700000002,-8.1104477,-0.7932731645000001,-0.670866415,-0.42103043,-0.8372299185,-45.991822,38.507843,-118.29711850000001,8.280385486185466,1.153738493625472,132.63636524653066,29.388236363636306,31.61398181818179
20400,20400.0,0.3158363365,-6.970870235,-1.77860643,0.2782806365,-0.379117585,-0.23014221199999998,-47.6021576,37.2569275,-116.7450725,7.201270649568431,0.5349946620628419,131.4665899214038,29.327890909090854,31.59785454545452
20500,20500.0,3.308234385,-8.250208599999999,-3.382000725,0.517961126,-0.2805755575,0.200176235,-47.63287963157895,37.804854842105264,-117.91317589473684,9.512261827195415,0.6221922324725144,132.6714715038204,29.2675454545454,31.58172727272725
20600,20600.0,4.62361005,-10.69798275,-4.530504025,0.46459579450000005,-0.440157316,-0.0710960375,-47.007446,38.09387279999999,-118.648374,12.50402260205549,0.6455260188398952,133.18538708925178,29.207199999999947,31.565599999999982
20700,20700.0,-0.04401398200000006,-5.34993912,0.2464096070000001,0.5195144679999999,-0.0165588379,-0.007022093999999979,-48.020326,37.646484,-118.670961,5.393777204154851,0.5405247096505568,133.43923361128662,29.146854545454488,31.54947272727271
20800,20800.0,5.201333610000002,-12.8858093,-6.4356841,-0.03431396600000003,-0.05639953539999998,0.04219665540000006,-46.4404298,38.6334224,-121.420592,15.336046543668216,0.18728330628365564,135.61796360613232,29.086509090909033,31.53334545454544
20900,20900.0,-0.0053482269999998175,-8.083271700000001,0.21684417700000005,0.61027526,-0.504875187,0.8701156870000001,-46.029358200000004,38.908996,-124.246214,8.254399849726939,1.1799865257935034,138.09348153187426,29.026163636363574,31.51721818181817
21000,21000.0,-1.3832076939999998,-8.547868600000001,-0.00043182400000002513,0.708703615,0.08976592960000003,-0.06689605700000001,-45.41656440000001,38.8958738,-126.40106100000001,8.67171714743555,0.7218094473577402,139.83132246390096,28.965818181818122,31.50109090909089
21100,21100.0,1.65766755,-9.027792199999999,0.642880249,0.296025075,0.482519524,0.0301544183,-45.1498422,38.5595704,-127.869874,9.20555818982274,0.5691182168040753,140.98268633365655,28.905472727272674,31.484963636363627
21200,21200.0,1.26669155,-9.3370037,0.046244812,0.39487457299999995,0.394952387,0.42930450299999995,-44.124145399999996,38.711242799999994,-129.307558,9.422653886393581,0.7046621809005454,142.00694299348163,28.84512727272721,31.468836363636356
21300,21300.0,3.5110665789473683,-9.393747526315787,0.7263199805263159,0.2876522715789473,0.2033659284210526,0.4866806884210527,-42.3638908,39.335328000000004,-131.57562199999998,10.056047050026448,0.600870237375195,143.71554284754748,28.784781818181763,31.45270909090908
21400,21400.0,2.122019205,-9.65812585,0.3474441483,-0.01131286645,0.44794846,0.09721450599999999,-41.3513186,39.2559814,-132.24182000000002,9.895159228656636,0.4590941138935271,144.010007682038,28.724436363636304,31.43658181818181
21500,21500.0,3.478465255,-13.05932085,0.1860115054999999,-0.49760284,-0.14955520350000004,-0.266310896,-41.2750248,39.55932620000001,-132.251588,13.518210406884133,0.5879515755325947,144.08021529214338,28.66409090909084,31.42045454545454
21600,21600.0,-1.3182616905,-10.60653335,-1.959370445,-1.81613697,-0.345128628,-0.8553497400000001,-44.0594492,39.4985956,-127.4774164,10.871671296967307,2.039218780651616,140.54303276104386,28.603745454545393,31.40432727272727
21700,21700.0,2.5064811725,-11.47400615,-0.2339881905,-1.359927355,-0.659920514,-0.46673812299999995,-46.21581994736842,38.76415042105263,-121.54500921052632,11.752523776824408,1.5857604575739903,135.69066783118248,28.543399999999927,31.3882
21800,21800.0,0.22569656100000002,-7.341248355,-1.2767204250000002,-0.13248519949999998,-0.63137358,-0.6201293750000001,-48.2543946,37.6098638,-118.66333,7.4552984489089,0.8968022465737636,133.50690518884787,28.48305454545448,31.37207272727273
21900,21900.0,0.680231464,-7.478142515,-2.438449965,0.12003707700000002,-0.581043995,-0.0979377748,-49.381104,36.6690064,-118.54461640000001,7.895812250661101,0.6026952812019585,133.55151204401207,28.422709090909024,31.355945454545456
22000,22000.0,2.9117584,-8.729233,-3.4215088,0.30474854,-0.014953613000000001,0.23416138,-48.8934328,36.779174,-118.497922,9.817564271077476,0.3846125778720579,133.36060393076679,28.36236363636357,31.339818181818185
22100,22100.0,4.6475525,-10.286667,-4.437851,0.14390564,-0.110824585,-0.2761078,-48.7597652,36.968994,-118.8256844,12.128882211784653,0.3304942345716061,133.65544794962844,28.302018181818113,31.323690909090914
22200,22200.0,-0.8591155999999999,-9.898804,0.012969971,1.0493774,0.26628113,0.61231995,-49.220582,36.961669799999996,-120.82031200000002,9.936023775370463,1.243798331319366,135.59675413098202,28.241672727272658,31.307563636363646
22300,22300.0,1.6715546000000001,-7.643463000000001,1.5057526,0.2110138,1.6191559,-0.12164307,-47.82039114285714,38.01640057142857,-123.16044228571428,7.967679229584792,1.6373728007922554,137.4796757297631,28.1813272727272,31.291436363636368
22400,22400.0,4.890564,-11.816559,1.4925841999999998,0.6371155,-0.16835022,0.47917175,-46.8868248,38.27384955,-126.30294850000001,12.875421951635866,0.8147782047357187,140.05618106026236,28.120981818181747,31.2753090909091
22500,22500.0,0.46128845,-9.5672,-0.02532959,0.6019591999999999,-0.24931335,0.16278076,-46.30215289473684,38.448775052631575,-128.02389157894734,9.578347689566971,0.6715724836375,141.46491595964858,28.060636363636288,31.25918181818183
22600,22600.0,1.203246315,-8.72977725,0.472119899,0.262562563,0.4995658865,-0.08260116420000001,-46.1255654,37.841415399999995,-130.14351000000002,8.825052985276402,0.5707425811566839,143.16751485535747,28.00029090909084,31.24305454545456
22700,22700.0,1.40956497,-9.43402415,0.490971384,0.328665928,0.3535667405,0.323323046,-45.30044575,37.64579745,-132.06230349999998,9.551556813740287,0.5811152903990249,144.60234321004037,27.939945454545377,31.226927272727288
22800,22800.0,2.99500733,-9.29582285,1.0288849299999998,0.17703170850000002,0.237997436,0.3748710585,-43.70552085,38.346863,-133.346329,9.820950301660071,0.4781404299378442,145.47136875523668,27.879599999999925,31.210800000000013
22900,22900.0,1.561849255,-9.793397175,0.4342262265,0.175748445,0.3185203565,0.2143394435,-42.726135,38.43994,-134.35058999999998,9.92672645449797,0.4223907214550186,146.12745338433137,27.81925454545447,31.194672727272746
23000,23000.0,3.597750135,-10.12666705,1.37599412,-0.059934997649999995,0.439598845,0.36650695549999995,-40.74852005,38.76174835000001,-135.74981599999998,10.834759201300972,0.5760400314092926,146.93866248912434,27.758909090909015,31.17854545454548
23100,23100.0,1.649466705,-12.3580675,-2.172518195,-0.91321335,-0.7440734649999999,-0.6448967099999999,-41.17790335,38.9977263,-133.8362885,12.656259112069904,1.3442735090847795,145.3577476547031,27.69856363636356,31.162418181818204
23200,23200.0,-2.6569168430000003,-10.2248901,-0.40206911,-2.07206877,0.11127167199999999,-0.5703368999999999,-44.05776945,39.9621574,-128.4209435,10.609560458607296,2.1565705123131944,141.52810626157333,27.638218181818104,31.14629090909093
23300,23300.0,2.9188187,-10.228242100000001,-0.868331915,-0.94351958,-0.5536621100000001,-0.8394210599999999,-46.00356965,39.8592376,-123.00865225,10.679216688037684,1.3804003840417225,137.24606447989441,27.57787272727265,31.130163636363665
23400,23400.0,0.559564205,-7.2304688,-1.60275879,0.176815799,-0.551841739,-0.585665875,-48.4942617,38.90243579999999,-121.5721925,7.42719290973362,0.8284012291877949,136.54643421312377,27.517527272727193,31.114036363636387
23500,23500.0,1.38831939,-7.640110699999998,-2.5803116200000003,0.39934998,-0.37012025,0.0533782953,-49.60151629999999,38.61915625,-122.48970175,8.18421573295253,0.5496914289007679,137.67897502988978,27.457181818181734,31.097909090909123
23600,23600.0,5.2444273500000005,-9.765922199999999,-4.5662933400000005,0.15093231,-0.1375640848,0.05093383750000001,-48.9558406,39.0095524,-122.78106675,11.991500670089517,0.22057046326482416,137.8177205103842,27.39683636363628,31.081781818181852
23700,23700.0,2.0791732350000003,-4.67536775,-2.805120886,0.102354431,0.032026672369999995,-0.4502761870000001,-49.95903085000001,38.9601141,-123.0210115,5.891816159426473,0.4873206730591071,138.37633796448893,27.33649090909083,31.065654545454574
23800,23800.0,2.26556395,-17.1750198,-5.9629578,0.962881495,0.0292587283,0.751449589,-48.677902,40.01022275,-126.7514805,18.33875870813419,1.2241541349983662,141.55027767897454,27.276145454545368,31.049527272727307
23900,23900.0,-3.8733557000000003,-5.281708439999999,2.68202669,0.397589109,0.57183989055,0.37381210649999996,-47.86346435,40.4640199,-129.8323815,7.184714257805599,0.8407884817303535,144.1694357077398,27.215799999999923,31.03340000000004
24000,24000.0,2.1244201665,-10.6180132,-0.7921958975,0.761852265,0.1208702055,-0.0030784607499999995,-46.3478842,41.17881725,-132.94082849999998,10.886316655909958,0.7721755625709119,146.68723801307854,27.15545454545446,31.017272727272765
24100,24100.0,2.36838993,-9.50279305,0.4239417985,0.4295463655,0.1241218575,0.0085281369,-46.64688200000001,40.2656565,-134.912875,9.806969623493645,0.4479727812708841,148.31973164286262,27.095109090909013,31.001145454545487
24200,24200.0,0.775645465,-9.479817225,0.36826553799999995,0.293414308,0.286882018,0.2490654025,-46.218872,40.3656,-136.681365,9.518962207340918,0.480598737040616,149.8247028490032,27.03476363636355,30.985018181818226
24300,24300.0,2.438361425,-9.54385685,0.39066314399999996,0.317269137,0.50835114,0.3460090615,-44.376373,40.270996000000004,-139.12734999999998,9.858527301529676,0.6919589514495338,151.48448040922173,26.97441818181809,30.96889090909095
24400,24400.0,1.93175203,-9.72917615,0.9206718190000001,0.159455109,0.3367904775,0.234104157,-42.872619,40.88211,-140.22293,9.961982796668613,0.44013067614649776,152.2231242744169,26.91407272727264,30.952763636363677
24500,24500.0,2.33953552,-9.601434199999998,0.70920412,0.06804809839999999,0.6344238240000001,0.20922546,-41.371154499999996,41.1651615,-142.02957,9.909699859232152,0.6718356382219877,153.5532843041073,26.853727272727184,30.936636363636406
24600,24600.0,3.12076114,-11.562292800000002,1.161953768,-0.113256834,0.051306150000000016,0.260995484,-39.818573,42.106629,-142.73529,12.034752073045185,0.2976169071226642,154.05161182939455,26.79338181818173,30.920509090909142
24700,24700.0,1.1441162059999999,-10.3793181,-2.42503966,-1.3760162,-0.43829651399999997,-0.519625856,-41.03241,43.2395935,-140.33203,10.736479372168224,1.540145724948332,152.46882879799583,26.733036363636273,30.90438181818187
24800,24800.0,0.476132196,-10.5698944,0.018954468,-1.76632994,-0.0268859862,-0.6858063,-44.514466,45.402527,-132.14264,10.586929073380166,1.895716728904956,146.6456344100476,26.672690909090814,30.8882545454546
24900,24900.0,0.8364623976600001,-9.299056599999998,-0.362676998,-0.95289918,-0.47152709,-0.919320672,-48.34060700000001,45.4490665,-126.686098,9.352269364531685,1.4073110282501635,143.01075112516025,26.612345454545366,30.872127272727326
25000,25000.0,0.736624148,-7.584561,-1.96105042,-0.189736936,-0.56911011,-0.546679686,-51.3443,44.45953400000001,-123.6228925,7.868803475524842,0.8125972461875028,141.0520539083143,26.55199999999991,30.85600000000005
25100,25100.0,2.9347412,-7.23094474,-2.51650698,0.269818116,0.016152954,0.0117279054,-52.70156850000001,43.9414975,-122.53341999999999,8.203458079200933,0.2723327606056007,140.43775390634303,26.49165454545445,30.839872727272788
25200,25200.0,3.2292862,-9.1646725,-4.304378525,0.72286987,-0.413627625,0.2163085925,-52.371978000000006,44.2306515,-124.3034375,10.628620715185654,0.8610723121612112,141.95255240070668,26.431309090909,30.823745454545517
25300,25300.0,0.95360185,-6.8728256499999985,-3.4268913000000003,0.03497695875,-0.0767364475,-0.2345581025,-52.90832500000001,43.904114,-124.5193475,7.870543848172318,0.3121184558345962,142.2392519140993,26.37096363636354,30.80761818181824
25400,25400.0,5.04049305,-15.47040575,-6.96073535,0.4658698825000001,-0.1268119825,0.6131172225,-51.369476500000005,44.571686,-127.770995,17.748094725033237,0.8133349892108095,144.74459920218942,26.31061818181809,30.791490909090967
25500,25500.0,-3.091407775,-7.123020275,1.13255688,0.561218275,0.02818298249999998,0.48768616,-50.612640500000005,44.7273255,-131.86416499999999,8.00477868190174,0.7637552307640136,148.15665503893757,26.25027272727263,30.775363636363696
25600,25600.0,1.2277374225000002,-9.99725725,-0.1962203985,0.663482675,0.003417967500000001,0.02376556375,-49.7413635,44.257355,-133.79363999999998,10.0997343669179,0.6671703905124495,149.44490769076873,26.18992727272717,30.759236363636433
25700,25700.0,2.343444847368421,-9.471313947368422,-0.2954438836842105,0.42289172,0.3290140263157895,0.01903252815789474,-49.943543,43.321228999999995,-135.998535,9.764730876780863,0.5389411121114993,151.21735976685954,26.12958181818172,30.74310909090916
25800,25800.0,1.37706755,-9.51334,0.3110465965,0.351631165,0.213272095,0.2525291475,-49.370575,43.32656849999999,-138.089755,9.618467987742356,0.482665045500652,152.91643655965854,26.069236363636264,30.72698181818189
25900,25900.0,1.84453965,-9.446590375,0.06265258775,0.3681335425,0.438842775,0.405132295,-47.51233563157894,43.090257578947366,-140.15511263157893,9.629122391520509,0.7019424310440551,154.13558393534547,26.00889090909081,30.710854545454612
26000,26000.0,2.074684175,-10.05471775,0.960773465,0.1851844775,0.1357841475,0.23921966500000005,-46.193236799999994,43.02780145,-141.2090265,10.3124690214647,0.3346427803811508,154.67784690461633,25.948545454545354,30.69472727272734
26100,26100.0,2.7393646250000003,-9.99486525,0.4723587,-0.0558395375,0.51768113,0.09753417974999999,-45.2823639,42.8356945,-141.86927849999998,10.379542087832894,0.5317493237833592,154.95899776685178,25.888199999999895,30.678600000000078
26200,26200.0,2.1571013999999997,-13.0052798,-1.0814148000000001,-0.77669676,-0.550360108,-0.411611936,-45.55000415,43.1221773,-139.778829,13.233106216687196,1.0371076841213878,153.20755316545169,25.827854545454446,30.662472727272807
26300,26300.0,-2.929321305,-10.0636974,-0.623168184,-2.06007461,-0.29287719425000003,-0.66439135,-49.0287014,44.07547075,-132.295155,10.51091611630952,2.1857564929773066,147.8137532355644,25.76750909090899,30.646345454545532
26400,26400.0,2.63750153,-10.5297929,-0.65369417,-1.26096651,-0.467799366,-0.575025914,-51.055145,43.753052000000004,-124.97101,10.877121503722844,1.4660446410541392,141.91164225699694,25.70716363636353,30.63021818181826
26500,26500.0,0.477693177,-7.341914389999999,-1.55486599,0.0870178225,-0.427105714,-0.45080414,-53.37448199999999,42.099,-122.550965,7.521631854600147,0.629234930636406,140.14260009758144,25.64681818181808,30.614090909090987
26600,26600.0,1.63815305,-8.195917,-2.86820523,0.35226746,-0.250273144,-0.140502928,-54.151916500000006,41.158294500000004,-122.984315,8.838104633908618,0.454708302174452,140.54052314190307,25.58647272727262,30.597963636363723
26700,26700.0,2.8772232000000004,-8.677636600000001,-3.113494935,0.27124633750000005,-0.08888854970000001,0.07505187955,-54.059601,41.208648,-123.86551000000001,9.6582450024533,0.29697191626244523,141.2914392472941,25.52612727272717,30.58183636363645
26800,26800.0,4.00697857,-8.351245870000001,-3.89113694,0.114441684,-0.384014119,-0.40995406,-54.440307,40.2610785,-123.19412,10.048130079738382,0.5738467879935434,140.57582391441468,25.46578181818171,30.565709090909177
26900,26900.0,-0.24224624949999998,-10.88688065,-1.658596765,1.00319515,0.1166091885,0.66575167,-53.76358000000001,40.1199335,-124.40796,11.020972902483676,1.209724714723398,141.34213297139402,25.40543636363625,30.549581818181906
27000,27000.0,0.033499908999999994,-5.9935594000000005,3.06893769,0.249253842,1.569833405,0.0525230404,-52.3643495,40.5960085,-126.85318,6.770334362992463,1.591126656249241,143.11537552441143,25.3450909090908,30.533454545454635
27100,27100.0,5.0585205,-12.2676287,0.43304138700000006,0.60761262,0.133219914,0.31180725099999995,-50.8689885,40.978241,-129.618075,13.282916589152851,0.7006084200017565,145.14736642311016,25.284745454545345,30.517327272727364
27200,27200.0,0.94791259,-9.84792025,0.37377777100000004,0.67418364,-0.09432068,0.0814956673,-50.533294500000004,40.273284999999994,-131.446075,9.905772321839656,0.6898448085562479,146.47068034078552,25.22439999999989,30.50120000000009
27300,27300.0,0.6875396739999999,-8.9011338,0.33834077,0.208448795,0.56135865,-0.1204666174,-50.48866235,39.55947885,-133.751908,8.935250072223852,0.6119447543857287,148.3363020751356,25.164054545454434,30.485072727272826
27400,27400.0,1.88535617,-9.3220429,0.262095645,0.235516363,0.527476504,0.22073517399999998,-49.323196,39.30336,-135.232544,9.514831869612939,0.6186819275419075,149.2159353437075,25.103709090908982,30.46894545454555
27500,27500.0,2.311378910526316,-9.247009210526317,0.8472297905263158,0.2987510305263158,0.19825824894736846,0.3765572084210526,-47.923888899999994,39.34204095000001,-136.33552749999998,9.569280993665172,0.5199570271489076,149.77382730754852,25.043363636363527,30.45281818181828
27600,27600.0,1.712828747368421,-9.724401578947367,0.2430114736842105,0.1541531205263158,0.2519764142105263,0.1970423610526316,-46.38755775,39.33814965,-137.4505605,9.877106586475804,0.3585082250456811,150.30641300395285,24.98301818181807,30.43669090909101
27700,27700.0,2.757393294736842,-9.638710184210526,0.9707167673684209,-0.035958541263157895,0.5693118484210526,0.25109140421052634,-44.82978725,39.5307156,-138.15643,10.073000110470312,0.6238624977644973,150.53136081761656,24.922672727272612,30.420563636363735
27800,27800.0,2.79012378,-12.53380055,-0.523394012,-0.339622505,-0.473449706,-0.07918853734999999,-43.9328763,39.598083,-137.3548145,12.869694664626605,0.5899906067369496,149.54755716399868,24.86232727272716,30.40443636363647
27900,27900.0,-0.6927185,-9.604912,-0.80105592,-1.9397583,-0.54598998,-0.713401795,-45.86158815,40.012130799999994,-131.06277849999998,9.67403634580054,2.13858419111975,144.50656492883653,24.8019818181817,30.3883090909092
28000,28000.0,1.429978195,-11.479453999999999,-0.269002536,-1.37265931,-0.0104324348,-0.7129760625,-47.9119109,39.84329245,-125.2629847,11.584327088875535,1.5482273536782487,139.90668160681608,24.74163636363625,30.372181818181925
28100,28100.0,0.4495514000000001,-7.1440307800000005,-0.425650026,-0.27453613200000004,-0.46449585,-0.9203765840000001,-50.58006285,37.8363035,-121.96388400000001,7.172708769807901,1.0802350780231214,137.3507852202672,24.68129090909079,30.35605454545465
28200,28200.0,-0.19197463850000002,-6.761737075,-1.516863255,0.33330536,-0.324684914,-0.0983146685,-52.24304160000001,36.2219236,-120.775756,6.935000106039813,0.4837844898909531,136.4851177162852,24.620945454545325,30.339927272727383
28300,28300.0,3.72811429,-9.06789135,-3.62484052,0.494743342,-0.1370925915,0.507022094,-51.1004638,37.01416,-121.53106799999999,10.456974731890515,0.7215643221632639,136.93501420532684,24.56059999999988,30.32380000000011
28400,28400.0,4.53298952,-8.321259999999999,-5.62466122,-0.225534059,-0.39536438399999996,-0.60580749,-50.8990476,36.7446898,-120.892334,11.035978093169543,0.7928043283499299,136.22022720740694,24.500254545454425,30.30767272727284
28500,28500.0,0.49253539,-14.903635999999999,-5.24254605,0.932084668,-0.333255006,0.92721863,-50.2517704,37.168273600000006,-123.282778,15.94033879419956,1.3642827681091578,138.22290043382958,24.43990909090897,30.29154545454557
28600,28600.0,-2.88041533,-7.403802499999999,1.96077571,0.454209905,0.84620054,0.328645322,-48.9456172,37.7609252,-126.42883,8.229235074775309,1.049874013386414,140.73326688239294,24.379563636363518,30.2754181818183
28700,28700.0,2.1129837000000005,-10.474010375,0.18595886375000004,0.66241835,0.08491516099999999,0.04666900625,-47.9592884,38.139953999999996,-127.679442,10.741397034466221,0.6700380972408302,141.62212090470214,24.319218181818062,30.25929090909103
28800,28800.0,2.38532255,-9.87545775,-0.13845825125,0.449363715,0.20049667150000006,-0.023639679250000004,-47.9095458,37.6748658,-129.67987,10.160455235442065,0.5036615951391065,143.2889996947075,24.258872727272607,30.243163636363764
28900,28900.0,1.30853654,-9.281399,0.597152705,0.2826461775,0.28810882250000003,0.14786910874999998,-47.784119,37.6449588,-131.66046,9.394277835834176,0.43260772446983137,145.03435664370713,24.198527272727148,30.22703636363649
29000,29000.0,1.6604843,-9.66207475,0.3188362075,0.3313827525,0.2817230225,0.4312324625,-46.561889,37.6815798,-133.03833,9.80956359067289,0.6128034265042189,145.9013921690234,24.138181818181693,30.210909090909208
29100,29100.0,2.2758484,-9.505669900000001,1.13059084,0.18672790399999997,0.25753479,0.25290832399999996,-44.993590999999995,38.097229399999996,-134.944456,9.840066839618533,0.4065171808454449,147.26121931539743,24.077836363636237,30.194781818181944
29200,29200.0,2.38406674,-9.3969728,0.39197388,0.084240724,0.5903259279999999,0.179394532,-43.61145120000001,38.0548096,-135.814512,9.704246118677016,0.6237072629946006,147.63412719843916,24.01749090909078,30.178654545454673
29300,29300.0,2.86913458,-10.790158,0.8846984920000001,-0.11218567199999999,0.06941223120000001,0.10483398599999999,-42.384642,38.3523556,-136.304626,11.201261340878348,0.18037181736540392,147.8050126493611,23.957145454545326,30.1625272727274
29400,29400.0,1.70124204,-11.3575866,-2.2770813,-1.039611788,-0.466415404,-0.60292664,-42.848511,38.6532598,-135.08545,11.709549106068248,1.2949507313131396,146.89522781656734,23.89679999999987,30.146400000000128
29500,29500.0,-1.23954774,-10.3479586,-0.09572754,-2.0049560200000003,0.136520386,-0.45635376,-44.709472600000005,39.656067,-128.098756,10.440895043139843,2.069826086126064,141.35402652091713,23.836454545454416,30.13027272727286
29600,29600.0,2.66706858,-9.702709800000001,-0.922680662,-0.8154815599999999,-0.401226804,-0.90013734,-46.19895568421053,39.46420747368421,-123.19769589473684,10.108259765238564,1.2867266558137245,137.3666889358103,23.77610909090896,30.11414545454559
29700,29700.0,0.758465553,-7.314979515,-2.0769906,0.1727088921,-0.536347186,-0.514562992,-48.46481295,38.5773467,-121.055222,7.64491141907967,0.7648643636071502,135.98365205098594,23.7157636363635,30.09801818181832
29800,29800.0,1.522280875,-7.418288445,-2.50285344,0.242224885,-0.2526748675,0.05961303699999997,-48.9329521,38.1041715,-121.389845,7.9823203258014175,0.3583066117274345,136.3153428848467,23.655418181818053,30.081890909091054
29900,29900.0,3.90912167,-9.18406655,-3.603176145,0.3944992025,-0.09191665675,0.110322569,-48.16085805,38.6103059,-122.48535290000001,10.61194717074361,0.42212881087551785,137.1601798386834,23.59507272727259,30.065763636363773
30000,30000.0,2.40310063,-6.398120125,-4.110973325,-0.07021484365,-0.2993316605,-0.459646605,-48.47816470000001,38.33076465,-121.902468,7.97893549825849,0.562285854421344,136.6733822611437,23.534727272727142,30.049636363636502
30100,30100.0,1.2687934790000002,-15.94032515,-3.69187394,1.27643583,0.229315185,0.846311189,-47.43537855,39.48577775,-124.44053899999999,16.428149798963755,1.548697305098157,138.90600527768123,23.47438181818168,30.033509090909234
30200,30200.0,-3.209857165,-5.2023886,3.9596901,0.2642776495,0.8845031850000001,0.1211303737,-46.376191,40.04631045,-127.29995825,7.3442387366009285,0.9392223270745084,141.27927422155702,23.41403636363623,30.017381818181963
30300,30300.0,4.238139299999999,-12.122767800000002,0.0944992065,0.608360284,-0.1303253149,0.202304073,-44.69757055,40.7647704,-129.1212465,12.846195614476006,0.6581703222601571,142.5902043501836,23.353690909090773,30.001254545454692
30400,30400.0,2.32433931,-10.0890149,-0.405175769,0.53932037,0.06728057600000001,-0.05751953150000001,-44.4112393,40.45715355,-130.7173895,10.367408940119176,0.5513728223273621,143.8618152102709,23.29334545454532,29.98512727272742
30500,30500.0,0.943719526,-9.3653703,0.7885696409999999,0.204827882,0.395591739,0.08768463129999997,-44.581070600000004,40.39810195,-132.211151,9.448483195299938,0.456597087957689,145.25587095478917,23.232999999999862,29.969000000000147
30600,30600.0,1.73249051,-9.64692425,0.162852482,0.335008237,0.27288207,0.35112304400000005,-43.2987975,40.554733299999995,-134.110493,9.803010425924922,0.5571825896052953,146.64642292956592,23.17265454545441,29.95287272727288
30700,30700.0,1.93049014,-9.7010453,0.274540707,0.229548644,0.306117247,0.34260254,-41.326522600000004,40.8897391,-135.405427,9.895586155651019,0.5137393205582712,147.3589479954241,23.112309090908948,29.93674545454561
30800,30800.0,2.8266403600000003,-9.871749900000001,0.377490234,0.08775634800000001,0.408810423,0.167680357,-39.860915000000006,41.10595715,-135.941544,10.2756846736229,0.4511358234375528,147.50861731066314,23.051963636363496,29.920618181818337
30900,30900.0,3.06247249,-12.2154256,0.35168533799999996,-0.27512437,-0.115680694,0.03585739125,-38.87817345000001,41.52229305,-136.13197150000002,12.599541618019225,0.304279865383877,147.53827823502826,22.991618181818037,29.904490909091066
31000,31000.0,0.26185684200000003,-9.83925075,-0.80070418,-1.74268496,-0.5360817015,-0.75967864,-40.6070705,42.673644,-131.728361,9.878997961416148,1.9759546245334751,144.3013926715318,22.931272727272585,29.888363636363795
31100,31100.0,1.161409038,-11.07967845,0.46678924549999995,-1.6017982400000002,-0.08430404624999999,-0.4683372525,-42.5333395,43.57154875,-124.4021635,11.151919677566758,1.6726798729039347,138.50511388412718,22.870927272727126,29.87223636363652
31200,31200.0,0.4902015725,-7.979963899999999,-0.8447494524999999,-0.444814297,-0.354985813,-0.72544023,-44.8069,43.12759455,-119.4109335,8.039857758392028,0.92299983685842,134.63559884422463,22.810581818181678,29.856109090909253
31300,31300.0,0.52898787,-7.2568054,-1.66943128,0.26166305700000003,-0.396163176,-0.3220191955,-46.8492886,42.09350600000001,-118.30558575,7.465813829787897,0.5745790508150168,134.02599819978315,22.750236363636215,29.839981818181982
31400,31400.0,2.208455635,-8.438213265,-2.836848465,0.47306213,-0.0283775332,0.206352995,-46.6922001,42.3457339,-118.738253,9.172673961214581,0.5180451999583712,134.43251133714818,22.689890909090767,29.82385454545471
31500,31500.0,6.940002400000001,-12.761063,-5.4003143,-0.00630188,-0.5071106,-0.26438904,-46.05263126315789,42.81431368421053,-120.09686715789472,15.497475818363428,0.5719287007975871,135.56242053310064,22.62954545454531,29.80772727272744
31600,31600.0,-3.0426330000000004,-7.6733856,0.87727356,0.73405457,-0.20243835,0.45999146,-47.5059505,42.295685,-119.15954520000001,8.3010885453687,0.8896120168711408,135.07320007953393,22.569199999999853,29.791600000000173
31700,31700.0,3.2098389,-9.753952,-2.8552855999999998,0.20143127,1.2143555,-0.18663025,-45.487365999999994,43.5923765,-121.75354250000001,10.658109646641122,1.245015938504052,137.0887657455205,22.508854545454398,29.7754727272729
31800,31800.0,3.139206,-10.443481,0.25358582,0.6424408,-0.24505615,0.9159241,-44.379304894736855,43.866608105263154,-124.69627,10.908034446035733,1.1452945713301328,139.43869639920806,22.448509090908946,29.759345454545628
31900,31900.0,-1.0745850000000001,-9.240387,0.28352356,0.6690674,-0.24291992,0.14254760000000002,-43.4046925,44.31350670000001,-127.3031618,9.306979662654747,0.7259346331050245,141.61131720398248,22.388163636363487,29.74321818181836
32000,32000.0,0.9796295,-8.95668,0.6139220999999999,0.26321409999999995,0.5943755999999999,-0.19728088,-43.397369700000006,44.1340641,-129.532623,9.03098504729903,0.6793259614704449,143.5613891648065,22.32781818181803,29.727090909091093
32100,32100.0,1.6787415,-9.325394000000001,0.23683167,0.39424133,0.41540527,0.32043457,-42.630921,43.785400700000004,-130.870666,9.478250657108262,0.6562515358267945,144.43590555857398,22.267472727272573,29.710963636363807
32200,32200.0,2.89403836,-9.58821545,0.3578521725,0.248030094,0.3063324,0.461586001,-40.4484569,44.385681299999995,-132.704924,10.022123395125274,0.6070873135157238,145.66026837194642,22.20712727272712,29.694836363636547
32300,32300.0,1.65664675,-9.80716555,0.27442398100000004,0.1769790655,0.1828071595,0.20353393600000003,-39.3324282,44.790497,-133.529664,9.949981868913794,0.3267132220465047,146.23068015075563,22.146781818181662,29.678709090909273
32400,32400.0,3.465776845,-10.6696764,1.275846895,-0.11123581199999999,0.406782528,0.1625106775,-38.028564700000004,44.785919,-134.33441100000002,11.290847667431267,0.4543187116290656,146.62117218034587,22.086436363636214,29.662581818182
32500,32500.0,1.38155818,-11.41589135,-2.30353549,-1.183319835,-0.7179809565,-0.545190415,-38.5852049,45.584106299999995,-131.799316,11.72782685020618,1.489148473402749,144.69989313649984,22.02609090909075,29.64645454545473
32600,32600.0,-1.43808743,-10.414693,-0.06118392975,-1.976835615,0.0342544551,-0.41725845799999994,-41.3592524,45.8935544,-123.22280900000001,10.526583908851652,2.021445837948421,137.84420796382722,21.965745454545303,29.63032727272746
32700,32700.0,1.67538984,-9.2497321,-0.853730008,-0.9197143584999999,-0.2652923565,-0.8285598700000001,-42.9675291,45.202637,-116.762849,9.439691893253544,1.2675209067876947,132.3749498651367,21.905399999999844,29.614200000000192
32800,32800.0,0.56447909,-7.18330227,-1.5838424999999998,0.0986251826,-0.5839157070000001,-0.68176576,-45.9532169,43.6380001,-114.4360345,7.377964532525937,0.9045069403179364,130.81161727322495,21.845054545454392,29.59807272727292
32900,32900.0,1.60259856,-7.55391234,-2.96529997,0.332977295,-0.1796417196,-0.029069517600000008,-46.78070200000001,43.170472100000005,-114.65576200000001,8.275371517017179,0.3828575592953719,131.14148425047352,21.784709090908933,29.58194545454565
33000,33000.0,4.30601808,-9.96607665,-4.36853487,0.51546325,-0.17197265399999997,0.1564971975,-46.1630245,44.131621,-116.435244,11.704977405794425,0.5674257594548553,132.800079777522,21.72436363636348,29.565818181818376
33100,33100.0,1.46086575,-6.06281426,-2.6249557089,0.092446902,-0.056715392,-0.4595459014,-46.7933652,43.6795042,-116.1503615,6.8727939212814375,0.4986503119261406,132.62147631401027,21.664018181818022,29.549690909091105
33200,33200.0,4.00004117,-16.417254999999997,-7.062612850000002,0.361103821,-0.294583131,0.71161043,-44.83409652631578,45.083939368421056,-118.60793157894736,18.3345703851905,0.8892228049789974,134.57572076184795,21.603672727272567,29.533563636363834
33300,33300.0,-1.91005557,-7.81679994,0.256703182,0.5197204559999999,-0.021240235649999998,0.73930513,-44.0948485,46.0205075,-122.360993,8.152097408459637,0.9083582114598148,137.96572535194863,21.543327272727108,29.517436363636566
33400,33400.0,-0.54930877,-9.27618715,0.134236149,0.7264862019999999,0.026696777400000003,0.0426177973,-42.64526375,46.400833,-124.64637775,9.298063168391666,0.7298411723353619,139.67276835638674,21.482981818181656,29.50130909090929
33500,33500.0,1.4737922369999998,-9.80039945,0.16219253300000006,0.383056645,0.5210281290000001,-0.12441100949999999,-42.61017,46.36268575,-126.958847,9.92246875142719,0.6594416264344073,141.71696843618759,21.422636363636197,29.48518181818202
33600,33600.0,1.58686373,-9.40871375,0.3337951745,0.25271453850000003,0.64252703,0.171945951,-42.150116,46.315765500000005,-127.68973999999999,9.54748418437946,0.7116138503434065,142.2198481097623,21.362290909090746,29.46905454545475
33700,33700.0,2.644439685,-9.304804800000001,0.6865875450000001,0.22949523800000002,0.339080805,0.389954374,-40.578461,46.74263,-129.9800875,9.69873392827429,0.5657711842839752,143.96646715011846,21.301945454545287,29.45292727272748
33800,33800.0,1.1208885095,-9.854566975,0.7751007075,0.1675521815,0.10659255599999999,0.31660767,-38.7565615,47.257614,-131.00281,9.948716672378039,0.3784530962591687,144.5583888431489,21.241599999999835,29.43680000000021
33900,33900.0,2.407777435,-9.8464313,0.1376495351,0.0605926498,0.7468200660000001,0.23431243850000003,-37.467195000000004,47.252655,-131.7604025,10.141938618894095,0.7861934009925172,144.9048507540969,21.18125454545438,29.420672727272933
34000,34000.0,3.576622725,-12.83762035,0.126520537,-0.479334254,-0.26822509899999997,-0.11657867400000001,-36.3185885,47.64633225,-131.20498500000002,13.333603332865733,0.5648866220510566,144.2357844933931,21.120909090908924,29.404545454545666
34100,34100.0,-1.162922905263158,-10.051655,-0.77913384,-2.0837394631578947,-0.5785907905263158,-0.9154341842105264,-39.0628825,47.96333350000001,-124.1924275,10.16173927774493,2.349032187259088,138.74668892924126,21.06056363636347,29.388418181818395
34200,34200.0,2.07138976,-11.4045108,-0.31671142399999996,-1.43035274,-0.30023193600000003,-0.705828852,-41.936494,46.783829,-115.745925,11.60695132642042,1.6290677742182074,131.69926638802556,21.00021818181801,29.372290909091124
34300,34300.0,0.6001525839999999,-6.8979095400000014,-0.46778564799999994,-0.26196289,-0.8077270320000001,-0.772088628,-44.85130375,44.72084025,-111.18507450000001,6.9447428081994165,1.1519243689910863,127.96015449995808,20.939872727272558,29.35616363636385
34400,34400.0,0.607339472,-7.781601119999999,-2.38697816,0.419595336,-0.6125671420000001,-0.264175424,-46.013642499999996,43.87207025,-110.3336325,8.166115273035992,0.7882590353076273,127.34024333671141,20.879527272727106,29.340036363636578
34500,34500.0,2.30889282,-8.136910799999999,-3.05352786,0.426409916,-0.048620606600000005,0.0125823974,-46.28372125,43.9697265,-110.64682125,8.9926220045611,0.4310256335122875,127.74308500541605,20.819181818181647,29.32390909090931
34600,34600.0,5.94735726,-10.8897612,-4.74215092,0.229754638,-0.48708495799999996,-0.11269226,-45.7336425,44.80018625,-111.7580425,13.286911828160253,0.5705568952486558,128.7963396551902,20.758836363636192,29.30778181818204
34700,34700.0,-2.225910175,-11.116848,-0.6768608,1.0072937,0.010879517499999993,0.7550621,-46.2287905,44.83032225,-112.8208175,11.495779840931966,1.2674722765297586,129.9057500553747,20.698490909090733,29.29165454545477
34800,34800.0,-0.9854049725,-6.705825825,3.934368125,0.314601905,1.71636585,0.08927917525000001,-44.738005,46.0880275,-115.3266875,7.975070003790218,1.752153774299131,132.00709411405276,20.63814545454528,29.275527272727494
34900,34900.0,5.31553656,-12.361230599999999,1.1353790662,0.69889526,-0.07141723380000001,0.441458134,-43.003845,47.29805,-118.23692125,13.52458154995309,0.8346147500455688,134.41170844230288,20.577799999999822,29.25940000000023
35000,35000.0,2.1573395,-9.979968199999998,-0.330593868,0.5642578079999999,0.0913574208,0.026220703,-42.58374578947368,47.545663842105256,-120.52018368421055,10.220623316985874,0.5932347807417035,136.3784823759762,20.51745454545437,29.24327272727296
35100,35100.0,0.984902948,-8.959555400000001,1.10521242,0.243399052,0.24709778,0.0826751704,-43.0804448,47.4426274,-121.913758,9.082117466199211,0.359754118162996,137.73056732860962,20.457109090908915,29.227145454545685
35200,35200.0,0.93605956,-9.4453336,-0.210647572,0.37421570200000004,0.339993286,0.41993713200000005,-42.0791628,47.8619388,-123.931276,9.497206589181006,0.6582869820794274,139.35713830377594,20.39676363636346,29.21101818181841
35300,35300.0,2.088382,-9.485555999999999,1.06713254,0.19737854,0.14717712400000002,0.300204464,-40.585632200000006,48.6715694,-124.9835202,9.772316755315373,0.3883940412224623,140.132114537838,20.336418181818004,29.194890909091143
35400,35400.0,1.62918394,-10.0639954,0.1108978312,0.196731568,0.37833557,0.22158203199999998,-39.4406126,48.821715999999995,-126.04217479999998,10.196523121056382,0.4828053086866784,140.80416474491008,20.276072727272552,29.17876363636387
35500,35500.0,3.5085144,-11.602875,1.173862475,-0.229740145,0.3397712675,0.082618712,-39.052735999999996,48.991089200000005,-126.345518,12.180242231784135,0.4353433778041688,141.0263804691405,20.215727272727094,29.162636363636604
35600,35600.0,0.8994216899999999,-10.58205075,-1.931121825,-1.49074555,-0.54706192,-0.7176628,-40.9213258,48.699646,-122.16705400000001,10.801217640078724,1.7473262638290383,137.73656569457722,20.15538181818164,29.14650909090933
35700,35700.0,0.325717915,-10.3943975,0.4612884475,-1.85826875,0.060939790375,-0.39035797,-44.021606,46.5969852,-113.540952,10.41926001570771,1.9001110278530609,130.387740518935,20.095036363636183,29.13038181818206
35800,35800.0,1.041881555,-8.96955075,-1.13714985,-0.7032508749999999,-0.2477149925,-0.7024803374999999,-46.000978,43.8922126,-107.42309579999998,9.103805665968848,1.0325697824008269,124.82970626494141,20.034690909090727,29.114254545454788
35900,35900.0,0.803363825,-7.572834025,-1.649501825,0.26081085,-0.5507888575,-0.5253753625,-47.812616238095245,42.34771809523809,-106.08782076190478,7.79498273061158,0.8059992372188298,123.83073263177884,19.974345454545272,29.098127272727517
36000,36000.0,1.76732635,-7.9234697,-3.0796234,0.33287964,-0.186782836,-0.15850525,-48.713685,41.95365875,-106.4994825,8.683334803898035,0.4188357295188703,124.39965396763222,19.913999999999817,29.08200000000025
36100,36100.0,3.89110409,-9.7094221,-4.31934211,0.423426818,-0.40772095,0.0726562489,-49.06311025,42.338561999999996,-107.4546805,11.317461594170014,0.5930836280911197,125.48407282792542,19.853654545454358,29.065872727272968
36200,36200.0,1.189488249,-6.17665862,-2.80356751,0.18043670700000006,0.20225372100000003,-0.21165771834,-49.791717999999996,42.10433975,-107.02896125,7.0092150775707305,0.4029034694272548,125.32833045248572,19.793309090908906,29.049745454545704
36300,36300.0,4.2223404,-17.8799954,-8.641591060000001,0.4419616865,-0.755424502,0.709683211,-48.631287,43.96209625,-111.17286625,20.414951394457727,1.1586176390590213,129.06289402720145,19.73296363636345,29.033618181818433
36400,36400.0,-3.2473251160000003,-6.4066148,0.17901,0.61815493,-0.21245879999999998,0.355490112,-49.7122196,44.302063200000006,-113.6682108,7.473851924652433,0.7601991609270857,131.73632263089542,19.672618181817995,29.01749090909116
36500,36500.0,0.612480165,-9.961402699999999,-0.57468566697,0.71669768,-0.09048309449999999,0.0301574705,-48.3612068,45.3424072,-115.423278,10.013702102348926,0.7233238533188127,133.1063402720282,19.61227272727254,29.00136363636389
36600,36600.0,2.34551851,-9.3241925,0.202235413,0.392640684,0.41690370000000004,-0.0449478145,-48.824158,45.524902600000004,-117.359618,9.625049283993109,0.5765726702900255,135.01725862060474,19.551927272727088,28.985236363636623
36700,36700.0,1.12316891,-9.2037625,0.26232452900000003,0.34896697200000004,0.334350586,0.268247991,-48.954162200000006,45.45989960000001,-119.77813700000002,9.27577404253666,0.5532603274930792,137.14930237309528,19.49158181818163,28.969109090909352
36800,36800.0,2.00105745,-9.98247885,-0.02317962665,0.38592758,0.35299148350000004,0.537649521,-47.610473600000006,46.488342,-122.713012,10.18194365721199,0.7502973255296261,139.59431051299802,19.43123636363617,28.952981818182078
36900,36900.0,1.868840045,-9.81009055,0.66329193,0.18219375399999999,0.35138321299999997,0.1363136285,-46.509094,46.961975,-124.25597900000001,10.01620309689823,0.4248836742478295,140.7414691846884,19.37089090909072,28.936854545454807
37000,37000.0,3.02518008,-10.91621925,1.30727999,-0.1691215515,0.6102462795,0.08619003295,-46.440126,46.9488524,-125.8209232,11.404078933060283,0.6450308268030884,142.09792209037286,19.310545454545267,28.920727272727536
37100,37100.0,0.835616315,-11.757899625,-2.250566835,-1.20968319,-0.5314498915,-0.6321769724999999,-47.785034,46.05468740000001,-122.921144,12.00089918882817,1.4702382111351933,139.69319696118666,19.250199999999808,28.90460000000027
37200,37200.0,-0.609578725,-10.1713791,0.08461837549999998,-1.99216616,0.3022819545,-0.365858456,-50.461426,43.7271116,-115.45104979999999,10.256967335319539,2.05144885193849,133.3701320482807,19.189854545454352,28.888472727272998
37300,37300.0,1.38862836,-9.112238900000001,-0.818353289,-0.8317253075000001,-0.2488876355,-0.8257362559999999,-51.982727000000004,40.72509760000001,-111.50909399999999,9.257313959849403,1.2034088826718798,129.5961850010263,19.129509090908893,28.872345454545727
37400,37400.0,0.965567,-7.38848269,-1.66057514,0.15593414500000002,-0.402656555,-0.5270309475,-54.278257999999994,38.323975,-109.12017800000001,7.634761758954373,0.6858253622969381,127.7582655738148,19.06916363636344,28.85621818181845
37500,37500.0,0.8250267029999999,-7.379136595,-2.760169175,0.35002747700000003,-0.13846893400000002,0.15308990525000002,-54.56253100000001,37.7697001,-109.94476350000001,7.938828320068812,0.4118826741270475,128.41918019753476,19.008818181817986,28.84009090909118
37600,37600.0,6.14398498,-11.27803255,-4.610294295,0.2773750315,-0.2194297755,-0.036315155299999985,-54.0396895,39.01641745,-111.854478,13.647689638557813,0.390442641937046,130.20757162355258,18.94847272727253,28.82396363636391
37700,37700.0,-2.48112788,-5.38052443,1.36485751,0.58449401,0.432185366,0.03686599800000007,-55.2466583,37.60688795,-112.7593214,6.085352603079425,0.8279167564341927,131.07684652749433,18.888127272727075,28.807836363636643
37800,37800.0,3.92905578,-11.1698852,-2.8011688,0.17117309600000002,0.88945311,0.0010742180000000157,-53.271865500000004,39.8809049,-115.74104285,12.511852631855652,0.9217012222579586,133.50801010400974,18.827781818181624,28.79170909090937
37900,37900.0,3.0032165399999995,-9.883956800000002,0.62588501,0.6477691600000001,-0.297250368,0.69775696,-52.89527895,40.7441711,-118.945999,10.456005059384733,1.0013664696201174,136.40457904141832,18.767436363636165,28.775581818182093
38000,38000.0,0.28770752199999994,-9.2135804,0.43890074799999995,0.6639556799999999,-0.14235839679999998,0.06477355900000001,-52.046203999999996,40.9622941,-122.22931100000001,9.244411741573801,0.6917376480610199,139.02073615794484,18.707090909090713,28.759454545454826
38100,38100.0,1.1285492,-9.0785494,0.550949084,0.307525636,0.38601379399999997,-0.0136291506,-51.936645299999995,41.2516015,-124.76737975,9.170399767552382,0.4943314958887723,141.30113535938136,18.646745454545254,28.743327272727555
38200,38200.0,1.32630618,-9.381653,0.18200683399999998,0.34416809,0.36087036,0.309790042,-51.22665415,41.111755,-127.09052849999999,9.47697265946784,0.587845149409795,143.0606897731839,18.5863999999998,28.727200000000288
38300,38300.0,2.13052672,-9.5542728,0.818145756,0.238919068,0.164010622,0.3155426,-49.96978695,41.773987,-128.62609500000002,9.825319079164917,0.4291181053299908,144.17601147815694,18.526054545454343,28.71107272727301
38400,38400.0,1.34379274,-9.6871554,0.251437372,0.178839112,0.39623107799999996,0.179611202,-48.826066,41.9804386,-130.82626549999998,9.783943036755268,0.4718926986350894,145.81455150573788,18.465709090908888,28.694945454545746
38500,38500.0,3.11664275,-9.8728171,1.17517393,-0.04321212785,0.4414573695,0.35437240400000003,-47.468490100000004,42.19520585,-132.196199,10.421105257486344,0.571585060251765,146.66135353861722,18.405363636363433,28.67881818181847
38600,38600.0,1.79443967,-12.69109845,-1.42444688,-0.581867965,-0.503002932,-0.18774566550000002,-46.8151852,42.63938885,-132.704391,12.911913889760413,0.7928035938988285,147.03822485395426,18.345018181817977,28.6626909090912
38700,38700.0,-2.033944695,-10.2966552,-1.09529873,-2.050651545,-0.334695433,-0.6969444334999999,-49.079091526315786,42.33799894736842,-126.58466515789472,10.555700847169312,2.193114310447394,142.2148770220417,18.284672727272522,28.64656363636393
38800,38800.0,2.2703476,-11.06974175,-0.6696769600000001,-1.26512759,-0.326540365,-0.663173676,-50.7432559,41.47872940000001,-120.8459475,11.323589965513447,1.4684075101732084,137.47410731595832,18.224327272727066,28.630436363636655
38900,38900.0,0.88261033,-6.9080848800000005,-1.086325845,-0.09424133465,-0.6108657925,-0.564736165,-52.480774200000006,39.6186825,-117.5932334,7.056033296751032,0.8418263910335678,134.72964585079728,18.16398181818161,28.61430909090939
39000,39000.0,0.8076926684210527,-7.783389631578947,-2.410843721052632,0.3951946078947368,-0.55364187,-0.15690692736842105,-53.4756468,38.9457701,-118.15322890000002,8.190148160945482,0.6989887622362676,135.41288778800606,18.10363636363616,28.59818181818212
39100,39100.0,3.1086807,-8.9608685,-3.3371123999999996,0.310081485,-0.009094238000000004,-0.117378237,-53.573609999999995,38.7394713,-118.5292044,10.055124261962282,0.33384723376791703,135.72051552115087,18.0432909090907,28.582054545454845
39200,39200.0,4.1327895,-8.9848175,-4.0104829,0.0949020375,-0.51988985,-0.294212345,-54.3470762,38.471527,-119.05807549999999,10.672421546182353,0.6063163505717605,136.412968947188,17.982945454545245,28.56592727272757
39300,39300.0,-0.687324515,-8.583778500000001,-0.23841858,0.916214,0.30728912,0.56811525,-54.3861385,38.1681825,-121.011048,8.616008056184992,1.1231353212983333,138.05200112928162,17.92259999999979,28.549800000000307
39400,39400.0,2.42992405,-8.47245785,1.02392575,0.13857269,1.36775205,-0.036956787500000005,-51.767119799999996,39.7668445,-124.141539,9.46170163122954,1.3761050702201478,140.25823834796523,17.862254545454334,28.53367272727303
39500,39500.0,3.27806855,-11.300003,0.875480675,0.6855850299999999,-0.0335998535,0.491951,-50.939027,40.06958,-127.53814750000001,11.827273048076506,0.845856085841538,143.0607174215334,17.80190909090888,28.51754545454576
39600,39600.0,0.7330322149999999,-9.453484,-0.036705017500000006,0.57958985,-0.1459808325,0.0695724475,-50.0613399,39.893035999999995,-129.521481,9.494578357380608,0.603594618741889,144.4763547475525,17.741563636363423,28.50141818181849
39700,39700.0,1.069892125,-9.047544,0.5938659695,0.2795570405,0.35069428,0.03607177713,-49.6701052,39.79492,-131.30127000000002,9.130298822379107,0.4513204212294489,145.9136101008646,17.681218181817968,28.48529090909122
39800,39800.0,1.21480408,-9.32317885,0.3242767355,0.3730934175,0.3172447225,0.365393074,-48.322601,39.76623370000001,-133.143462,9.407676273058804,0.6116708163826343,147.11780078143056,17.62087272727251,28.469163636363948
39900,39900.0,2.33002702,-9.62867165,0.4596176065,0.360897065,0.1557022093,0.4175949115,-46.220856100000006,40.1625061,-135.544277,9.918783685237653,0.5757542932264954,148.73358681358818,17.560527272727054,28.45303636363668
40000,40000.0,1.44913484,-10.15803775,0.129385378,0.2373779305,0.27852859350000003,0.181156161,-44.7442625,40.074463200000004,-137.03811199999998,10.265343785410394,0.4114727262187989,149.6244246699141,17.500181818181602,28.43690909090941
40100,40100.0,2.957901025,-10.47825685,0.9917267,0.0051994324,0.5591659379999999,0.2831054675,-42.9937743,40.135803499999994,-138.19336,10.934013634571487,0.6272506360674115,150.1891282136702,17.439836363636147,28.420781818182128
40200,40200.0,1.31811597,-12.55247545,-2.1322906550000003,-0.91816632,-0.456715395,-0.547696683,-42.3065186,40.3646849,-137.373661,12.818686893439633,1.1640598224058107,149.30082285350426,17.37949090909069,28.404654545454864
40300,40300.0,-1.568277,-9.8183504,-0.7400085299999999,-2.0245483,0.022116092000000004,-0.58311768,-44.4522094,41.33377090000001,-130.85570800000002,10.008626436638348,2.1177402037239244,144.24910123402069,17.319145454545232,28.388527272727593
40400,40400.0,1.6734711,-9.892099400000001,-0.36028442200000005,-1.12376406,-0.541198728,-0.91718446,-45.86136000000001,41.4761364,-124.5809935,10.056509042127812,1.5538828199826449,139.0828517312633,17.258799999999777,28.37240000000032
40500,40500.0,0.79360352,-7.25056764,-1.4527557,0.025222778399999996,-0.503491208,-0.7037017959999999,-48.676581736842095,39.86639557894737,-122.86409236842104,7.4377269959674415,0.8703357422155087,138.0375439381235,17.19845454545432,28.356272727273048
40600,40600.0,1.20947264,-7.77442628,-2.6644683999999996,0.33778076,-0.502206422,-0.088827516,-49.58595265,39.27749675,-122.52861329999999,8.322861868914412,0.6148451763506313,137.89399149677777,17.13810909090887,28.34014545454578
40700,40700.0,2.93904726,-8.9341798,-3.26493228,0.43514098799999995,-0.0275238038,0.20092163,-48.93768135,39.28237965,-123.49792475,9.955786781603255,0.4837344206062629,138.52705835517827,17.077763636363414,28.324018181818513
40800,40800.0,2.88373716,-6.83422242,-4.1730529999999995,0.0005126953999999988,0.021475220000000017,-0.388388058,-48.9021302,39.19235225,-123.361204,8.541022621347771,0.5064905091402181,138.36710245181976,17.01741818181796,28.30789090909124
40900,40900.0,2.924444612,-17.4062954,-6.8828064000000015,0.749398812,-0.252932736,0.85562742,-47.21366835,39.92683265,-126.873705,19.076885147723075,1.1881334138881026,141.13913854193066,16.957072727272507,28.291763636363967
41000,41000.0,-3.4693343600000004,-6.46132055,1.47350008,0.46400755200000005,-0.03934783500000005,0.7056907655,-45.64727765,40.2312461,-129.367069,7.647583177654754,0.9704390864884992,142.96176952756318,16.896727272727052,28.275636363636693
41100,41100.0,0.6866401704999999,-9.40080235,-0.3818321225,0.6947998195,0.2728805535,-0.028588103499999986,-43.8869479,40.540161499999996,-131.13448499999998,9.550937342123712,0.7498054001475328,144.10358960112484,16.83638181818159,28.259509090909425
41200,41200.0,2.1105957,-9.6047349,0.3704887475,0.3292503355,0.34675369450000004,-0.06720809964999999,-43.99872,39.78462235,-133.37860049999998,9.850364259008314,0.4852533301510841,145.9745159810621,16.776036363636138,28.243381818182158
41300,41300.0,0.925823235,-9.6232871,0.3861640875,0.40259780799999995,0.122144316,0.2740486125,-43.5136425,39.8731227,-133.896794,9.676817230121287,0.5027638982898736,146.32722014788087,16.715690909090682,28.227254545454887
41400,41400.0,2.5740509100000004,-9.5630766,0.3794662445000001,0.3211067185,0.23239593449999998,0.452047731,-41.78871235,40.03860435,-136.1461645,9.920558502246568,0.601277317107617,147.9364001987243,16.655345454545227,28.21112727272761
41500,41500.0,1.444531985,-9.614243400000001,0.6528838954999999,0.1419273385,0.231490322,0.188027955,-40.60691660000001,39.57198985,-137.30408,9.745477597044903,0.33197212162082,148.550582326767,16.594999999999768,28.195000000000338
41600,41600.0,2.64443821,-9.860494599999999,0.791334535,-0.023138428000000003,0.52428435,0.19654846399999998,-39.15778965,39.926909,-137.993084,10.240652192467751,0.5608333364333639,148.894579047022,16.534654545454313,28.178872727273067
41700,41700.0,2.1173569,-13.252475,-1.7416153,-0.79652099,-0.406546023,-0.33874511,-38.6470045,40.11940005,-137.37441299999998,13.540604104829125,0.958786909462836,148.2392967830107,16.474309090908857,28.162745454545803
41800,41800.0,-2.299469,-10.6304654,-1.26361389,-1.96446994,-0.29490662,-0.79062958,-42.08786025000001,40.492019799999994,-130.030669,10.95060588572131,2.147560160563045,142.5449130895991,16.413963636363405,28.146618181818532
41900,41900.0,1.4154999,-10.291694300000001,-0.7473114209999999,-1.15274046,-0.6400528,-0.785404966,-44.0204624,39.85069245,-124.6550725,10.422373759800307,1.539155405367678,138.07532187691982,16.35361818181795,28.130490909091254
42000,42000.0,0.677122485,-7.417930499999999,-1.78028106,-0.05371093599999999,-0.425613411,-0.547325131,-46.15898125,38.7091069,-121.670382,7.659441411507803,0.6977328785245028,135.76721475455452,16.293272727272495,28.114363636363983
42100,42100.0,1.63384552,-8.0808882,-3.10846859,0.105764771,-0.715797424,-0.150305175,-47.05276515,37.7662655,-121.62246675,8.819029109379438,0.7404314221809085,135.7655385183657,16.23292727272704,28.098236363636712
42200,42200.0,2.31177368,-8.11129278,-2.28330382,0.39572296,0.16634827,0.016307067900000003,-47.05879255,37.75337385,-121.88514709999998,8.738036249851811,0.4332730032822427,135.99946546610866,16.172581818181587,28.082109090909448
42300,42300.0,4.156738325,-10.08226,-4.8176232500000005,0.36333848,-0.40137863,-0.1762390175,-47.338867,37.187195,-122.86072,11.922943995144458,0.5870244860538376,136.8159797674603,16.112236363636132,28.065981818182173
42400,42400.0,-0.0411949165,-9.68601575,-0.09027481250000008,1.1404533625,0.28677749750000003,0.547073365,-47.735596,36.91101,-124.27673,9.691504576851317,1.311576066995404,138.15142201290658,16.051890909090673,28.049854545454906
42500,42500.0,0.43076323000000016,-7.557865124999998,2.4757118,0.068531035,1.469490065,-0.0143203735,-46.47827,37.19635,-126.075745,8.49625594640521,1.4711608055517886,139.42342526570067,15.991545454545216,28.033727272727628
42600,42600.0,4.832500550000002,-12.680267,1.15381622125,0.628334045,0.14430236575,0.6647873000000001,-44.644165,37.860107,-128.85742,13.652109917102337,0.9282361020468776,141.5299397995176,15.931199999999762,28.017600000000357
42700,42700.0,1.369293225,-9.81111175,0.012378692500000009,0.61341475,0.043365479999999984,0.005928039549999993,-43.875122,37.582397,-131.26678,9.911538987607623,0.6270818547199816,143.41698095535583,15.870854545454307,28.001472727273086
42800,42800.0,0.85154341,-8.7792095,0.99938205,0.21208191,0.363212585,0.011253357249999985,-43.884277000000004,37.023926,-133.48694,8.879412917320364,0.4238713003341622,145.31126595976585,15.810509090908852,27.985345454545822
42900,42900.0,1.46756896,-9.4467712,0.6225341759999999,0.30071106,0.442251584,0.340686036,-43.00995,37.0224,-134.4696,9.581027926731576,0.6346678945692801,145.95405861065495,15.750163636363395,27.96921818181855
43000,43000.0,1.9308471999999999,-9.5549896,0.81741942,0.26875305,0.29481811399999996,0.373068234,-41.16211,37.205505,-135.48584,9.783105114026812,0.5466044976444302,146.4069046953139,15.68981818181794,27.953090909091284
43100,43100.0,1.36749876,-9.4994504,-0.02557983402,0.1012878412,0.5317352200000001,0.168319704,-40.093994,36.921690000000005,-136.94763,9.597501998553057,0.5681277992392183,147.39536257950942,15.629472727272484,27.936963636364002
43200,43200.0,3.44900818,-10.8263186,0.91271972,-0.0974853524,0.459515376,0.210086058,-38.53607,37.197876,-137.47863999999998,11.400698026740947,0.5157883887715801,147.5435092649144,15.569127272727028,27.92083636363673
43300,43300.0,2.33068544,-11.512490800000002,-1.41325378,-1.235613988,-0.72207336,-0.6828216640000001,-39.309692,37.478638000000004,-135.70862,11.83346741978249,1.5893596818177906,146.17362872205885,15.508781818181575,27.904709090909467
43400,43400.0,-1.25630796,-10.000079,0.6857482880000001,-1.7096648799999998,0.006991577999999997,-0.69667358,-41.90979,38.409424,-128.31421,10.110568592188637,1.8505438327949262,140.3433320032697,15.44843636363612,27.888581818182196
43500,43500.0,1.363359845,-9.47203905,-0.68296202,-0.8936103759999999,-0.195258333,-0.925015257,-44.32373,37.838745,-124.401855,9.594090852366193,1.3038907370635455,137.3760721222184,15.388090909090664,27.87245454545492
43600,43600.0,1.018773624,-7.421692474999999,-0.9718231215,-0.0932312015,-0.7657585075000001,-0.470414741,-46.939087,36.706542999999996,-121.7453,7.5542196268424595,0.9055662038662629,135.5454398329004,15.327745454545207,27.856327272727647
43700,43700.0,1.597579985,-8.026294094999999,-3.53912045,0.36531830200000004,-0.340284731,0.22355118149999997,-47.23053,36.895752,-121.42181399999998,8.92235559004802,0.5494412324745247,135.40781511706405,15.267399999999752,27.840200000000376
43800,43800.0,3.633133705,-9.4690371,-3.57485653,0.53186799,-0.12643967059999994,0.2115158075,-46.84601,37.368774,-121.9223,10.755582696953688,0.5915891623333693,135.85293946202702,15.207054545454296,27.824072727273112
43900,43900.0,1.00937803,-5.86367815,-2.21740185,0.07465896849999998,0.3487220861,-0.38317031549999997,-47.43805,37.376404,-122.86072,6.427224369244317,0.5490190703843499,136.90186515417574,15.146709090908846,27.80794545454584
44000,44000.0,4.8509956,-16.1773492,-8.160648375,0.29937515150000005,-0.44553375,0.571045695,-45.996094,38.328552,-125.79651000000001,18.827819434938426,0.8014634467949019,139.3179115901959,15.086363636363387,27.79181818181857
44100,44100.0,-2.8202102800000004,-8.3250978,0.18869934700000046,0.5896057100000001,-0.0017456020000000685,0.730886825,-45.5944068,38.35792505,-128.9672065,8.893911367363025,1.0008875344116863,142.06597747834326,15.026018181817932,27.775690909091296
44200,44200.0,0.1610534669999999,-9.3531597,0.196603393,0.652346801,0.0015518191999999984,0.13860320599999998,-43.58879165000001,38.91662625,-130.372309,9.3802456108143,0.6681445082043402,142.86856414604375,14.965672727272475,27.75956363636402
44300,44300.0,1.95970151,-9.4181642,-0.11918182400000002,0.423632813,0.480076625,0.07905578399999999,-43.48869325,39.18434179999999,-132.1600325,9.620908174010609,0.6500619358668375,144.5440147230665,14.90532727272702,27.743436363636757
44400,44400.0,1.80407108,-9.269487300000002,0.97639618,0.299423222,0.39091034,0.249389652,-42.809218,39.17785615,-133.75992050000002,9.494025252969337,0.5529426128909523,145.80559823000902,14.844981818181564,27.727309090909486
44500,44500.0,1.92762296,-9.7001954,0.408729557,0.27002715,0.19478911899999998,0.423136904,-41.2539687,39.2850495,-135.5385585,9.899040631877147,0.5387100521215626,147.0235182400067,14.78463636363611,27.71118181818221
44600,44600.0,1.41501466,-9.9180714,0.86243288,0.157644649,0.157188413,0.252056881,-40.1023105,39.8368835,-136.8384525,10.055684174783577,0.3365017547248897,148.0538368836666,14.724290909090655,27.69505454545494
44700,44700.0,1.88140261,-9.889341900000002,0.155067448,0.007444763200000003,0.439057917,0.189303585,-39.404219700000006,39.93637095,-136.717754,10.068159480462922,0.4786318415740713,147.78146794025076,14.6639454545452,27.67892727272767
44800,44800.0,3.96040958,-12.2859919,0.166506195,-0.5100105130000001,-0.16004333275000002,-0.09591140885,-38.6536409,40.340042,-136.68579350000002,12.909745568217714,0.5473122405589251,147.66333553337415,14.603599999999744,27.662800000000402
44900,44900.0,-1.8851478255000005,-10.41469155,-1.007730075,-2.405972275,-1.375032795,-1.118682145,-41.9828792,40.881423999999996,-129.23813570000002,10.642116905650497,2.9889646146191513,141.90305531997726,14.543254545454287,27.64667272727313
45000,45000.0,2.40621792,-11.1088345,-0.10206298400000023,-1.44910282,-0.131599425,-0.7601608049999999,-44.951553600000004,40.28602585,-122.1728517,11.379834850417266,1.6552919900770815,136.27125803989514,14.482909090908835,27.630545454545857
45100,45100.0,0.15710296999999995,-6.04928897,-0.7432373019999999,-0.08726959220000002,-0.921496586,-0.753880312,-47.730027,38.5640723,-118.860471,6.100157157261492,1.1978490522594747,133.76537202088647,14.422563636363378,27.614418181818586
45200,45200.0,0.4708602879999999,-7.3717165,-1.88514712,0.579374714,-0.453520205,-0.1237716676,-48.50746155,37.82173125,-118.2374605,7.624636607871553,0.7470626298291617,133.28002368180105,14.362218181817925,27.598290909091315
45300,45300.0,3.40292509,-9.312106,-3.87592927,0.58278348,0.03607635529999999,0.153941348,-48.47137415,37.8607179,-119.524615,10.646232500282627,0.604285661140491,134.42123083838482,14.301872727272468,27.582163636364044
45400,45400.0,4.0213500899999985,-9.8384724,-5.02562087,0.129841614,-0.520849596,-0.28387909400000005,-48.12538155,38.0987547,-120.28938625,11.759069902396714,0.614360888586312,135.0448908001379,14.241527272727012,27.56603636363677
45500,45500.0,0.06900177250000006,-11.51984815,0.2971603440000001,1.1659630129999998,0.156396486,0.763322453,-48.28178435,37.7864079,-122.27157620000001,11.527439442348635,1.4033800337556246,136.7821009482843,14.181181818181555,27.5499090909095
45600,45600.0,-1.7711311650000003,-4.74822015,3.89140018,0.27849121050000003,1.7789550900000002,-0.020551300249999988,-46.955108200000005,38.51135255,-125.16639950000001,6.525966801232728,1.8011167314542669,139.1206332055788,14.1208363636361,27.53378181818223
45700,45700.0,6.19413755,-13.04824675,1.179609685,0.589184565,0.18925399775,0.297643284,-44.64569,39.558409999999995,-127.301025,14.4930784558806,0.6923239573788427,140.58327213205285,14.060490909090646,27.51765454545496
45800,45800.0,1.6350486565,-9.8258998,0.26388626,0.6138885470000001,0.06962890599999999,0.08305129750000001,-44.557190000000006,38.905334,-129.6814,9.967623801757794,0.6242038441297421,142.5350262227066,14.00014545454519,27.50152727272769
45900,45900.0,0.96664202,-9.2907329,0.6076980449999999,0.37867660399999997,0.307132721,0.059349825,-44.265212700000006,38.627625,-131.7728405,9.360820461162492,0.4914040752062018,144.27608284234512,13.939799999999735,27.485400000000414
46000,46000.0,1.4153748,-9.174561,0.5540619000000001,0.3217926,0.3429718,0.49194336,-42.98675515,38.7235261,-133.55194550000002,9.299615043442802,0.6805794607965256,145.5455595349051,13.87945454545428,27.46927272727315
46100,46100.0,2.194687,-9.677338,0.9155884,0.23231506,0.39730835,0.35984802,-40.67321735,38.90998795,-135.2127865,9.96523075058614,0.5842215415238011,146.46090726961978,13.819109090908825,27.45314545454588
46200,46200.0,1.827179,-10.089141999999999,0.22724915,0.11514282,0.6028899999999999,0.12762451,-39.3043521,39.0000903,-135.7666805,10.25577942286108,0.6269148559814902,146.6234593344361,13.758763636363367,27.437018181818605
46300,46300.0,2.8842163,-12.984924000000001,-0.44192505,-0.42175293,0.025527954,-0.19088745,-38.55453485,39.188995,-136.654435,13.308728440417562,0.4636434286890234,147.29795965196072,13.698418181817914,27.42089090909133
46400,46400.0,-0.6795502,-9.204483,-1.1266631999999999,-2.0505524,-0.43254090000000006,-0.7927550999999999,-40.503310799999994,39.7588346,-131.1947675,9.29804633984168,2.2406064857298302,142.9455167986746,13.638072727272458,27.404763636364063
46500,46500.0,1.3842468,-11.377213000000001,-0.7723236,-1.4433441,-0.16195679,-0.69369507,-42.7166765,40.004960499999996,-126.1575295,11.487105753574145,1.6095605123679628,139.071573670969,13.577727272727005,27.388636363636788
46600,46600.0,0.54867554,-7.416015600000001,-0.09477234,-0.33866882,-0.33239746,-0.81407166,-45.4016117,38.777086,-122.16484299999999,7.436888732801287,0.9422830300232512,135.9750692943241,13.517381818181546,27.37250909090952
46700,46700.0,-0.59695435,-7.0999756,-1.8580933000000002,0.1918335,-0.55503845,-0.19302368,-46.952895899999994,37.918929799999994,-121.9149805,7.36332253321041,0.6181633390467239,136.03561339092275,13.45703636363609,27.35638181818225
46800,46800.0,2.6016998,-8.037308,-3.0133057,0.27172852,-0.09059143,0.21817017,-46.642607,37.7551274,-121.63360949999999,8.969234804476717,0.3600575215832384,135.63083063615255,13.396690909090635,27.34025454545498
46900,46900.0,5.1371613,-10.814575,-4.5827026,0.5412445,-0.29618835,0.07437134,-45.490951700000004,38.119353800000006,-123.24783300000001,12.819774638147486,0.6214533318515302,136.79378791834006,13.336345454545182,27.324127272727708
47000,47000.0,-1.4984260749999998,-8.148159,0.9267211975,0.89751356,0.3329559455,0.3718955960000001,-45.67794815,38.02146865,-124.40376425,8.345526685017235,1.0296300938289031,137.8710536927681,13.275999999999723,27.308000000000444
47100,47100.0,0.4392082270000001,-7.179822525,1.21300282,0.22965317149999998,1.32834164,0.008589935453,-44.302062899999996,38.5104354,-126.586153,7.3610945267114865,1.34867699835697,139.5343200277921,13.215654545454269,27.291872727273173
47200,47200.0,5.4004616,-13.06986215,0.2914726255,0.6562332175,-0.225027466,0.606524635,-42.27859460000001,38.86947650000001,-129.111178,14.145250758322634,0.9243455687680852,141.30824980795256,13.155309090908814,27.275745454545888
47300,47300.0,0.834185033,-9.6122119,0.5391517875,0.505818938,0.0933784455,0.08581161464999999,-41.371917700000004,38.4207155,-131.61635800000002,9.669610634083579,0.5242731203049457,143.2154276777021,13.094963636363358,27.259618181818624
47400,47400.0,0.4767974835,-8.6037698,1.1690788475,0.28025284,0.3074989345,0.0197189331,-41.11557,38.1517029,-133.292235,8.696922375123938,0.4169928777264547,144.61285927468774,13.034618181817903,27.243490909091353
47500,47500.0,0.872367855,-9.39038745,0.52712556,0.280299382,0.3843017565,0.28304519899999997,-39.8846436,38.2261661,-134.798282,9.44566419377268,0.5537497401684324,145.6798192142843,12.97427272727245,27.22736363636408
47600,47600.0,1.811374635,-9.57738,0.66383896,0.23940658899999998,0.29567108,0.284174348,-38.3197017,38.1391904,-136.23108,9.770328178288043,0.4748758827195544,146.5670760764778,12.913927272726994,27.211236363636807
47700,47700.0,1.6373847899999998,-9.61699775,0.748224635,0.174949647,0.28043518149999996,0.2711189285,-36.9421376,38.0415343,-137.70568999999998,9.784168295968547,0.4275835612466497,147.56269852242755,12.853581818181539,27.19510909090954
47800,47800.0,3.05756221,-10.5406862,0.966697686,-0.076399233,0.388453671,0.26047209600000004,-35.36338815000001,38.2387537,-138.101123,11.018173080755988,0.4749605078886535,147.59645925201758,12.793236363636087,27.17898181818227
47900,47900.0,0.76260221,-12.0673451,-1.90430757,-0.974305725,-0.659440613,-0.502365113,-35.0299088,39.1748044,-136.17035,12.240532508859008,1.280491226613748,145.95954484625997,12.732890909090626,27.162854545454998
48000,48000.0,-1.760768106,-9.907055699999999,-0.551106264,-1.9277176,0.232824704,-0.47232361,-37.36160275,41.09939505,-130.2832075,10.090911539981814,2.000348684526375,141.6291937724834,12.67254545454517,27.146727272727734
48100,48100.0,2.09521637,-10.2500276,-1.68606722,-1.025016754,-0.33133544600000003,-0.576728825,-38.4846499,41.70448265,-125.39123300000001,10.5984277362059,1.2248617583140544,137.6348818651914,12.612199999999714,27.130600000000452
48200,48200.0,1.34809721,-7.51298065,-0.80081634,0.1075790405,-0.475784308,-0.5513763159999999,-40.96847515,41.6981508,-123.5221125,7.675844569568902,0.7371468295742519,136.6560279895275,12.551854545454262,27.11447272727318
48300,48300.0,0.72908631,-8.302103,-3.01317444,0.17063750900000002,-0.6815933000000001,-0.312109373,-42.0842749,41.556548,-123.23799375,8.865907909344687,0.7688389904070744,136.69545714538924,12.491509090908805,27.098345454545914
48400,48400.0,1.89889223,-8.2479938,-2.42612155,0.30453644,-0.016442870630000002,0.0191833499,-42.591629100000006,41.90040625,-124.3387635,8.805343188905383,0.3102704000760598,137.94861865897218,12.431163636363351,27.082218181818643
48500,48500.0,4.02811507,-10.24309185,-4.41270355,0.255754089,-0.359349825,-0.1565261875,-42.36160295,41.982574250000006,-125.121381,11.859368416642818,0.4746695263674941,138.60893614152602,12.370818181817894,27.066090909091372
48600,48600.0,-0.245775603,-9.1915517,-0.752394115,0.7850357,-0.0536300649,0.408330535,-42.8337095,42.2985073,-125.24162240000001,9.226477887951301,0.8880790831971253,138.95845374965322,12.310472727272439,27.0499636363641
48700,48700.0,1.38903889,-7.880601500000001,0.7787628125,0.1871452285,0.998532845,0.04288482675,-41.21147155,43.40927125,-128.0421445,8.238064771774004,1.0168374535119769,141.34202990848453,12.250127272726983,27.033836363636826
48800,48800.0,4.54381961,-12.57587115,0.5210174475,0.57906649,-0.4728004475,0.6573852525,-39.40185560000001,43.8822934,-130.453113,13.389370449236958,1.000302911660526,143.1648741230425,12.18978181818153,27.01770909090956
48900,48900.0,0.2468269273,-9.2870265,-0.46203689200000003,0.61208114,-0.09335631800000001,0.02445831275,-39.0663146,43.95530675,-132.3139145,9.324838120108165,0.6273351570120068,144.79382352349037,12.129436363636074,27.001581818182288
49000,49000.0,0.7588340960000001,-8.744434,0.686461635,0.23327712899999997,0.269361876,0.1238441469,-38.41735865,43.624649100000006,-134.43893400000002,8.804883152469852,0.37907688889599706,146.4678831093346,12.069090909090619,26.985454545455017
49100,49100.0,1.08522336,-9.349573,-0.02173767,0.468170164,0.34042052,0.44507751799999995,-37.1574403,43.6377715,-136.1437215,9.4132554273952,0.7304682503651171,147.7161626468343,12.008745454545164,26.969327272727746
49200,49200.0,2.64599608,-9.6038394,0.908886704,0.353115846,0.17040405600000003,0.4322937,-34.853898,43.727799499999996,-137.970577,10.010416619846293,0.5840237322358759,148.87175852404653,11.948399999999706,26.95320000000048
49300,49300.0,1.79677124,-9.920345800000002,-0.064117432,0.20866088600000002,0.60886842,0.17236328,-33.6987309,43.8341528,-139.004595,10.083221908836009,0.6685778546826505,149.59736676314932,11.888054545454251,26.9370727272732
49400,49400.0,3.4300963600000003,-13.486749,-0.044006344,-0.45477904,-0.128088376,-0.317861946,-32.749404600000005,44.70726129999999,-138.5266095,13.93323415114496,0.5720916454561877,149.20127879571643,11.827709090908794,26.920945454545933
49500,49500.0,-1.30707096,-9.4721496,-1.24446714,-2.06715694,-0.5827423119999999,-0.749295048,-36.4511874,46.3939669,-132.592618,9.644708142880477,2.2769927873286067,145.12800220762017,11.767363636363342,26.904818181818662
49600,49600.0,1.089044184,-11.155762,-0.08997497600000001,-1.57500606,-0.250167848,-0.5788574200000001,-38.886107,46.8976608,-124.30816675,11.225408873269158,1.6989842258390502,138.43453719584534,11.707018181817887,26.88869090909139
49700,49700.0,0.7078933749999999,-7.17240525,-0.6472244425,-0.35597992500000003,-0.5188293475,-0.674777975,-42.1231082,46.34796160000001,-119.780576,7.240442367987173,0.9322807790930264,135.16623372758824,11.646672727272431,26.87256363636412
49800,49800.0,0.2790298475,-7.60844805,-1.922439575,0.43685150000000006,-0.675422665,-0.2910270675,-43.7725816,45.745544,-118.568724,7.8547932325180145,0.8564581707794682,134.41443283541014,11.586327272726974,26.856436363636853
49900,49900.0,2.06899255,-8.463478,-3.877300225,0.5279274,0.1267280575,0.04533386275,-43.722229,45.600280600000005,-119.97131100000001,9.53676716047826,0.5462981173245475,135.58829864914028,11.525981818181519,26.840309090909578
50000,50000.0,4.1705057000000005,-10.35399625,-4.24152375,0.1369705175,-0.4170951825,-0.051067351500000004,-43.63067760000001,45.718078799999994,-120.996398,11.950776590001386,0.4466443899480229,136.50612533534087,11.465636363636065,26.824181818182307
50100,50100.0,-1.014430995,-7.717987125,0.6459427,0.812881475,0.8252716175,0.392883295,-43.948974,45.838012799999994,-121.947326,7.8125892210337495,1.2394330074188529,137.49154044308568,11.40529090909061,26.80805454545504
50200,50200.0,1.43213655,-7.51836775,0.465171805,0.3918457075,1.4135704,-0.1837005625,-42.2915646,46.4096072,-125.13610700000001,8.055009210161506,1.479976674362054,140.00526237942015,11.344945454545154,26.791927272727765
50300,50300.0,4.729847124999999,-12.94302725,0.61810685,0.6735992325,-0.34384918575,0.60512543,-40.6256104,46.617431599999996,-127.32727,13.809901722445185,0.9916311582002214,141.54838633163618,11.284599999999699,26.775800000000487
50400,50400.0,0.278135684,-9.508303999999999,0.409217835,0.5156708,0.00592956640000001,0.0267456055,-40.486755200000005,46.4593506,-130.35918999999998,9.551001325207958,0.5257385616283924,144.19147846470582,11.224254545454244,26.759672727273227
50500,50500.0,1.57088624,-8.9641041,0.79527893,0.31029358,0.430000308,0.041870116400000004,-40.180968799999995,45.9350572,-132.014468,9.135575129601653,0.533547831557798,145.43858325741525,11.163909090908787,26.743545454545952
50600,50600.0,0.98754121,-9.4088212,0.649349992,0.283561706,0.242947386,0.38787078399999997,-38.7664796,46.2750244,-133.787836,9.482764217302805,0.5384048545265289,146.77707603278188,11.103563636363333,26.72741818181868
50700,50700.0,1.28812258,-9.73467395,0.5860244720000001,0.292286685,0.258174132,0.359321593,-36.6070556,46.211852,-135.222472,9.837554631465348,0.5318812186090165,147.5152604647734,11.043218181817878,26.71129090909141
50800,50800.0,1.4535628999999999,-9.6671647,0.06995086519999999,0.11641235800000001,0.62675936,0.14903411700000002,-35.0906372,46.3214112,-136.419368,9.77649499436776,0.6559207103012632,148.28119686237687,10.982872727272422,26.69516363636414
50900,50900.0,2.80616912,-10.7586749,0.7845062300000001,-0.0507232674,0.648059079,0.30276184100000003,-32.882996,46.42181400000001,-136.232912,11.152879381318504,0.7194467987504068,147.6338265975211,10.922527272726967,26.67903636363687
51000,51000.0,1.0604722,-12.436028105263158,-2.9459469421052638,-0.8877780326315791,-0.9154928184210528,-0.5106867678947369,-32.739562,47.056579600000006,-134.46533399999998,12.829865235777824,1.3895434372985804,146.17554817105562,10.862181818181512,26.6629090909096
51100,51100.0,-0.9509307595,-10.07441145,-0.06716841499999993,-2.02220381,0.13977737434999998,-0.6020217959999999,-35.64575199999999,48.0593864,-125.91644280000001,10.181732075236438,2.1220717241696296,139.41080974509646,10.801836363636058,26.64678181818233
51200,51200.0,1.81975932,-10.43564395,-0.98570789,-1.112422155,-0.439940645,-1.0094352675,-38.3398438,47.667846999999995,-119.31945800000001,10.64449128590824,1.5720566056014351,134.08750385218912,10.7414909090906,26.63065454545505
51300,51300.0,1.19134596,-7.241897675,-1.305574075,0.05803756675,-0.7734184224999999,-0.6136390655,-41.2890628,46.9165024,-116.725159,7.455802543949781,0.99349404686841,132.4036728872853,10.681145454545145,26.614527272727784
51400,51400.0,0.20121917649999999,-7.28158033,-2.48256767,0.3556259165,-0.72148971,0.045125579400000004,-41.79535,47.140865476190484,-116.27429904761904,7.709456375760361,0.8118378632071371,132.24533723923588,10.620799999999688,26.598400000000517
51500,51500.0,3.64706651,-10.20513675,-4.949249310000001,0.37841186299999996,-0.26720885899999997,0.06530761569999999,-40.5372625,48.036194,-117.21153249999999,11.91468927410254,0.4726759769864261,133.00110674345603,10.560454545454236,26.58227272727324
51600,51600.0,0.9264846645,-5.619583175,-2.4136672999999997,0.11002502445,0.22004012899999997,-0.29832000350000004,-41.097640500000004,47.66235375,-117.58499199999999,6.309112091932543,0.4287304341131556,133.36783587611401,10.50010909090878,26.56614545454597
51700,51700.0,4.3784453800000005,-18.1200042,-7.079605,0.683352658,-0.28446960600000004,0.7595459040000001,-38.91029500000001,49.18251025,-121.7521675,20.061859268089357,1.0936194897813154,136.9547134423077,10.439763636363324,26.5500181818187
51800,51800.0,-3.70103756,-7.1509766,1.12627566,0.476474002,-0.08419799000000006,0.37796325799999997,-38.48762375,49.4995125,-124.36447,8.435454376233656,0.7295102135035428,139.27682505238138,10.379418181817869,26.53389090909143
51900,51900.0,0.6221740480000001,-9.7221104,0.157586668,0.5810821399999999,0.05620422172,0.07351379420000001,-37.11242675,49.715804999999996,-126.842118,9.797890727366694,0.5903658861435763,141.20185519365975,10.319072727272411,26.51776363636416
52000,52000.0,2.66562504,-9.567917199999998,0.011300664000000016,0.35567627,0.545159912,0.023013306,-36.491777,49.79400625,-129.37507749999997,9.942965239443737,0.6562154808761955,143.34926419592819,10.258727272726956,26.50163636363689
52100,52100.0,1.40843202,-9.667993,1.06378786,0.306460568,0.08731078960000001,0.190478514,-35.84098825,49.91378750000001,-130.63278,9.83216284692706,0.3722160191141106,144.3639041385353,10.198381818181502,26.485509090909616
52200,52200.0,0.817544552,-9.7324036,0.102758787,0.38933716,0.22280884,0.301904296,-34.389115000000004,50.0568395,-132.8330975,9.776222138041195,0.5420027046946986,146.05808453398478,10.138036363636047,26.469381818182345
52300,52300.0,1.751642605,-9.88131765,0.624933625,0.2403060905,0.334133145,0.178548433,-32.69157425,50.29106175,-134.5645925,10.055733568724518,0.4492033447941917,147.32813436226746,10.077690909090592,26.453254545455074
52400,52400.0,1.84095231,-9.460001375,0.40920943649999997,0.1304244975,0.44161682,0.266009525,-31.280136,50.686645,-134.8949475,9.646216509450234,0.532059198948704,147.45942480238153,10.017345454545136,26.437127272727803
52500,52500.0,3.73756944,-11.88802385,0.64546205,-0.1505363437,0.17801437269999998,0.236336515,-29.335022,51.293565,-135.6849675,12.478540960007086,0.3514126409227977,147.9935493161353,9.95699999999968,26.42100000000053
52600,52600.0,0.11783829499999998,-11.13648505,-2.287202455,-1.54081726,-0.4548591615,-0.8542335449999999,-31.3011175,52.71072375,-132.149885,11.378470326177725,1.8294625603043213,145.67842278401145,9.896654545454227,26.404872727273265
52700,52700.0,-0.059151455000000075,-11.0617269,0.8871559040000001,-1.86950527,0.5323173425,-0.55893402,-35.425948999999996,54.0416715,-122.1275335,11.166162650771565,2.022733605420368,138.16938373836638,9.836309090908768,26.38874545454599
52800,52800.0,1.34780653,-8.63430245,-0.603290575,-0.85606307,-0.5907325735,-0.866797645,-38.92517075,53.39393625,-115.58837875,8.76263594053968,1.3580540128873413,133.1428263808549,9.775963636363317,26.37261818181872
52900,52900.0,0.4078430235,-7.285349425,-1.139714845,0.29516754300000003,-0.6253501885,-0.60564269,-42.693329,52.27317875,-114.0132895,7.388531601493727,0.9231474164058175,132.49246884381932,9.71561818181786,26.35649090909145
53000,53000.0,1.8828205052631581,-8.752611789473683,-3.3096168894736837,0.31938492736842106,-0.5238767894736842,-0.1694167247368421,-44.1890725,52.82974300000001,-114.65912,9.546026794411624,0.6392788711430607,133.75490321312685,9.655272727272404,26.340363636364174
53100,53100.0,3.3014144999999995,-8.953087,-4.0481949,0.386779785,-0.264762875,0.0120468142,-44.51828075,53.216552,-116.17317375,10.371299256146088,0.4715654746814695,135.31479578180625,9.594927272726947,26.32423636363691
53200,53200.0,3.3624649,-7.7721483,-2.79123685,0.138038635,-0.1608963,-0.24787903500000005,-45.67304228571428,53.357805428571424,-116.71665428571428,8.917796595960867,0.32833888486621765,136.2202102292824,9.534581818181492,26.30810909090964
53300,53300.0,0.5247345000000001,-14.358002,-5.53678895,0.90023802,-0.058631900000000015,0.9313735999999999,-44.7866823,54.775390599999994,-120.307004,15.497539809526167,1.3176733766569768,139.57190475517862,9.474236363636036,26.291981818182364
53400,53400.0,-2.80081175,-5.8196793,3.8155594,0.408088685,1.21648405,0.2448120125,-43.4225465,55.350188100000004,-123.58246100000001,7.609613109536901,1.3547491942398824,142.20342798248745,9.413890909090584,26.27585454545509
53500,53500.0,3.0679702,-11.1701205,-0.324607835,0.6467056200000001,-0.1608963,0.19686889999999999,-41.618194,55.865021,-126.934051,11.699732290408779,0.6961484111575823,144.79400086400253,9.353545454545127,26.259727272727822
53600,53600.0,2.47791896,-10.0694459,0.2594490028,0.526750944,0.262496948,-0.058206176617,-41.682281700000004,55.556489,-129.795991,10.381924032883873,0.6008540419805946,147.21064430215318,9.293199999999672,26.24360000000055
53700,53700.0,0.5810020535,-8.81864845,1.2703498949999998,0.259696962,0.275865173,0.277827461,-42.153472,55.275726399999996,-132.18338300000002,8.93964432320719,0.4803228154203221,149.3481747886362,9.232854545454217,26.227472727273284
53800,53800.0,1.58812031,-9.67877745,0.21270828449999998,0.440838625,0.29375305,0.3831321725,-40.3144841,55.352478500000004,-134.920502,9.81152769867238,0.6541299030276119,151.30351480901726,9.17250909090876,26.211345454546013
53900,53900.0,1.6734726000000002,-9.6820698,0.966160582,0.230928805,0.1450469958,0.270903778,-39.009246999999995,55.599823,-136.97418000000002,9.877397589000953,0.3909791562206774,152.88882232223344,9.112163636363306,26.19521818181874
54000,54000.0,2.1300483750000003,-9.42140205,-0.20561828420000003,0.07247696049999999,0.695527645,0.15995330900000002,-38.2048039,55.51467879999999,-138.097685,9.670033649194846,0.7201836227707181,153.663639475759,9.05181818181785,26.179090909091467
54100,54100.0,3.982203735,-11.35716535,1.396765115,-0.08257827925,0.0972686757,0.0672286983,-37.448577,55.778503,-138.827968,12.12355203627005,0.18356798959331505,154.22987737532662,8.991472727272395,26.162963636364196
54200,54200.0,0.19673156890000001,-12.43162865,-2.577191915,-1.0223586930000002,-0.879467785,-0.6824539234999999,-41.07528720000001,55.957488100000006,-135.851596,12.711997220088847,1.5253901856849903,152.56024835135287,8.93112727272694,26.14683636363693
54300,54300.0,-2.6612297300000005,-10.1177553,0.4041809025,-2.16954119,0.70212098,-0.48772277399999997,-47.095642,56.255342000000006,-126.236572,10.527073079476832,2.3413011348057045,146.0098761969079,8.870781818181484,26.130709090909647
54400,54400.0,2.66245881,-9.29515865,-0.789685072,-1.142782595,-0.5295333855,-0.806876375,-51.2011722,54.8611453,-118.1703185,9.71601774468703,1.500561814303924,139.98494420979085,8.810436363636029,26.114581818182387
54500,54500.0,0.5006698585,-7.0255196,-1.47095107,0.199990848,-0.6901222245,-0.5700660814999999,-55.5323789,52.9856866,-114.280699,7.197971932339937,0.9255991292780468,137.66496612316968,8.750090909090574,26.09845454545511
54600,54600.0,1.59493714,-8.3228786,-3.37074967,0.4245437625,-0.5325615029999999,-0.1693115275,-57.8056348,52.3745728,-114.485018,9.12222423900668,0.7052280315908753,138.53313947349864,8.689745454545118,26.082327272727838
54700,54700.0,2.36946716,-8.906049399999997,-3.67972342,0.4153869625,-0.15408325905000006,0.173535155,-58.2635509,52.4783328,-115.813749,9.925988819182768,0.4888537802911916,139.8622788171514,8.629399999999663,26.06620000000057
54800,54800.0,3.48635865,-7.682373249999999,-4.21997835,-0.027610778500000002,-0.273811335,-0.36399079,-59.12552,52.1949766,-114.983981,9.435830707155958,0.472743526909921,139.4328232385759,8.569054545454206,26.050072727273303
54900,54900.0,0.8537582219,-13.074114999999999,-3.1045776000000003,1.197556305,0.17253342,0.7836753934999999,-58.956146499999996,53.2513426,-118.36181699999999,13.50585282487967,1.4418811768572253,142.55296399355228,8.508709090908752,26.033945454546032
55000,55000.0,-3.05244293,-5.176293950000002,4.19905621,0.306460573,1.65686647,0.08629150449999999,-58.9688108,54.26544300000001,-122.80227450000001,7.423323208541124,1.6996433840537954,146.6374193254191,8.448363636363299,26.01781818181876
55100,55100.0,5.532374714285713,-12.181160714285715,0.04990931142857141,0.6891566742857143,0.26886204142857145,0.3286568771428572,-56.62333133333333,55.66253633333334,-126.66880333333332,13.403642279787956,0.8176928117446792,149.49794942018033,8.38801818181784,26.001690909091487
55200,55200.0,2.18175664,-9.7280946,0.08384094212,0.52781676,0.302703868,-0.059216308200000005,-56.9963069,55.515747999999995,-129.876252,9.971541435489597,0.6315495147674204,152.31028924859845,8.327672727272386,25.985563636364216
55300,55300.0,1.06103822,-8.8642674,0.8293914920000001,0.320516966,0.23729553399999997,0.24458923600000002,-57.197723399999994,55.74523860000001,-132.283023,8.973452421034489,0.4693998144905772,154.52509279938832,8.267327272726929,25.969436363636948
55400,55400.0,1.33851928,-9.5897034,0.250952148,0.36313171200000005,0.279913328,0.464886476,-55.19760150000001,56.776886499999996,-134.902346,9.692528626819676,0.6536239359984968,156.42630016140038,8.206981818181474,25.953309090909677
55500,55500.0,1.5793792599999998,-9.43696,1.10544738,0.25895080800000003,0.19979553,0.303607172,-53.3467089,57.719879399999996,-136.38366499999998,9.631954675627233,0.4463205427718645,157.41025770843768,8.14663636363602,25.937181818182406
55600,55600.0,1.55423892,-9.910290400000001,0.53610839,0.166488646,0.529397576,0.26291809,-51.992492299999995,58.06930500000001,-138.330384,10.047285583972078,0.6145148802270762,158.7784711186055,8.086290909090565,25.921054545455128
55700,55700.0,2.90241092,-13.9660736,-0.047839356,-0.4875946,-0.04265442200000001,-0.08584899855599999,-51.0316472,59.208982999999996,-138.11355600000002,14.277661549178955,0.5262456011179729,158.6992771940601,8.025945454545111,25.90492727272786
55800,55800.0,-1.135406528,-9.003131199999999,-0.946624762,-1.74737242,-0.25250549,-0.8240753040000001,-55.357513399999995,59.6504201,-129.190519,9.166083077414548,1.949127895268884,152.68720509065938,7.965599999999656,25.88880000000059
55900,55900.0,0.88003234,-11.0238308,-0.244882197,-1.4358917,-0.079934691,-0.716696168,-59.590454,58.722991500000006,-119.120792,11.065479756393747,1.6084840524147441,145.5678714299149,7.9052545454542,25.872672727273322
56000,56000.0,1.10675966,-7.8689941999999995,-0.508959956,-0.37275390399999997,-0.451928708,-0.7789093,-64.00802589999999,55.3414908,-113.089903,7.964442719021517,0.9842971443194468,141.24232877949058,7.844909090908746,25.85654545454605
56100,56100.0,0.0624176,-7.1670166,-2.0146759,0.2359375,-0.84287416,-0.15317688000000002,-65.34713699999999,53.12561039999999,-109.02725349999999,7.453123850190992,0.8906861242062757,137.76628768616536,7.78456363636329,25.840418181818773
56200,56200.0,2.69771116,-9.0833344,-3.27259522,0.41405334200000005,-0.05692443840000001,0.087576294,-64.70489520000001,53.6788941,-108.82064879999999,10.025553643642171,0.4382272773613088,137.51399371631774,7.724218181817838,25.824290909091506
56300,56300.0,3.88714908,-10.4611998,-4.72323596,0.038650512799999995,-0.682455446,-0.302529908,-64.9874877,52.67425550000001,-108.087157,12.141680324421847,0.7522472985203379,136.6779244224297,7.663872727272383,25.808163636364235
56400,56400.0,-1.36788332,-7.940344099999999,0.6677856400000001,0.6912292440000001,0.33019104,0.5179412999999999,-65.73356749999999,51.8009941,-108.89068425,8.088159086299799,0.9300945701773142,137.3379888841064,7.603527272726928,25.792036363636967
56500,56500.0,2.5079719330000003,-8.58360067,0.32427673499999976,0.271249389,1.50203555,0.0076232909999999965,-63.82568365,53.89946000000001,-112.77503975,9.52131378542352,1.5274293668291925,140.34758201263477,7.543181818181473,25.775909090909693
56600,56600.0,4.47038275,-11.529251,-0.03790283,0.6845245499999999,-0.25677490000000003,0.5244369600000001,-62.34085095,54.90303030000001,-115.75378625,12.404192272653136,0.9079789599504118,142.47768700724004,7.482836363636018,25.75978181818242
56700,56700.0,0.8964309850000001,-9.535484,-0.0349121095,0.57852173,-0.12947845449999998,0.02696228,-61.81129470000001,54.8346711,-117.14713975,9.596427082832005,0.601035844649506,143.35596550703286,7.422490909090563,25.74365454545515
56800,56800.0,0.8176071269999999,-8.976015400000003,0.7426681390000001,0.26491241600000004,0.246562195,0.00948715185,-61.8141942,54.5567326,-119.63745300000001,9.056438252303023,0.36527075026762,145.2948642117421,7.362145454545111,25.72752727272788
56900,56900.0,1.32080692,-9.425464,0.419747928,0.38869934,0.218768312,0.38542175,-60.3918456,55.029220499999994,-121.333083,9.526883108691274,0.59033023558077,146.27764615360485,7.301799999999655,25.71140000000061
57000,57000.0,2.0606201200000003,-9.429770199999998,0.815502928,0.287710568,0.186380002,0.350057986,-57.720867315789484,55.416227473684216,-122.61745789473684,9.6871330328603,0.4903887533300437,146.41671315186957,7.241454545454202,25.695272727273334
57100,57100.0,1.17189024,-9.6845126,0.36419678,0.195672608,0.33700866,0.23223572,-55.6430054,55.217284,-124.199526,9.762626940412103,0.4547820307838802,146.86953254564042,7.1811090909087465,25.67914545454607
57200,57200.0,2.79910504,-10.41151775,1.15572128,-0.008644866799999998,0.60395659,0.17529525850000002,-54.00390720000001,54.6240236,-125.033875,10.844238717425137,0.6301150091102092,146.74379492350343,7.120763636363293,25.6630181818188
57300,57300.0,1.19241942,-12.55565055,-2.052866365,-0.760672001,-0.6150665144999999,-0.4624214170000001,-52.6687622,53.332826,-121.950684,12.806773685216449,1.082621231409389,143.1446669080611,7.0604181818178375,25.646890909091525
57400,57400.0,-2.358902715,-10.0350846,-0.7678909150000001,-2.060720805,-0.08505401480000001,-0.767829891,-53.988952600000005,49.0917972,-111.67053200000001,10.34351052072603,2.205605883234802,133.39918527542991,7.000072727272383,25.63076363636425
57500,57500.0,2.4489570250000003,-10.90592605,-0.738269799,-1.25085527,-0.42178268399999996,-0.90600433,-54.674682,44.2501824,-103.821106,11.203545252877806,1.6065843198363792,125.4056848505592,6.9397272727269295,25.614636363636986
57600,57600.0,1.14590762,-6.7178664,-1.290194705,-0.059356690199999985,-0.728787231,-0.6482040410000001,-55.184326399999996,40.699158000000004,-101.07788199999999,6.940271461679648,0.9823334656406916,122.1412718327314,6.879381818181474,25.598509090909708
57700,57700.0,0.8963210979999999,-7.8547517,-2.76909487,0.256707764,-0.7182449320000001,-0.03940429729,-53.6096196,40.284728799999996,-99.552308,8.381678918460521,0.7655719978060882,120.03141100437395,6.81903636363602,25.58238181818244
57800,57800.0,2.96585992,-8.693203500000001,-3.74819488,0.39966583200000005,0.026483154499999998,0.103128051,-52.093811,40.848083200000005,-100.248412,9.921610988259038,0.4141933283611248,120.13402680676106,6.758690909090565,25.56625454545517
57900,57900.0,3.74135131,-7.698045199999998,-4.36817167,0.016383361899999997,-0.323666382,-0.392759708,-50.691529200000005,41.181639600000004,-100.554198,9.617636224657463,0.5147530785503387,119.90296706031336,6.6983454545451115,25.5501272727279
58000,58000.0,1.08701176,-12.9572725,-3.24362172,1.09092253,0.06131591879999997,0.844334395,-49.450379999999996,43.155822,-103.3789064,13.485031975676709,1.3907109301148468,122.45611954267159,6.637999999999657,25.534000000000628
58100,58100.0,-3.9907282947368414,-6.188861421052631,3.219184510526316,0.3866071157894737,1.0266450842105264,0.024190000526315786,-48.8330078,44.4552612,-106.68121000000001,8.183633593819424,1.1070549006578294,125.46660575635816,6.577654545454202,25.51787272727336
58200,58200.0,4.412921925,-12.50398975,0.6845398100000001,0.594509125,-0.0037689200000000094,0.27436829,-46.652526,46.1206054,-109.46411040000001,13.289986787406235,0.6783239088150667,127.61671937787949,6.517309090908746,25.50174545454609
58300,58300.0,1.940303725,-10.1184655,-0.13396835750000002,0.6336517375,-0.08952713000000001,0.10472869875,-45.3005982,47.25647,-110.99731399999999,10.318856223906929,0.6509624253491919,128.86328203616088,6.456963636363293,25.48561818181881
58400,58400.0,1.395320925,-9.12008275,0.4074211125,0.23657608,0.3829155,0.10765838625,-45.62866200000001,47.5335696,-113.354798,9.237245466233931,0.4637129408430525,131.11373605238106,6.396618181817838,25.469490909091547
58500,58500.0,1.518032075,-9.331974125,0.686943055,0.28291320750000004,0.3352546575,0.3864898625,-44.571229200000005,48.331605200000006,-115.382382,9.482190099102489,0.5852670558708568,132.79935727067362,6.336272727272384,25.453363636364273
58600,58600.0,1.932228075,-9.77729075,1.152019475,0.2560119625,0.2463035575,0.3137855525,-42.9052734,48.916932,-117.200014,10.035739068958042,0.4746421527962765,134.05084079974708,6.275927272726929,25.437236363637
58700,58700.0,1.889133475,-9.67015825,0.380481715,0.0770492555,0.6886558625,0.12762832875,-42.12967652631579,49.313193736842095,-118.4159152631579,9.860499236018553,0.7049163769877986,135.01498854468952,6.215581818181474,25.421109090909727
58800,58800.0,2.937857,-11.7875852,0.621572872,-0.12838134399999998,0.38622131600000004,0.12826843400000001,-41.4896395,49.4902027,-119.2415615,12.165277328053564,0.42958487160729336,135.60688023162191,6.1552363636360194,25.40498181818246
58900,58900.0,1.24707028,-10.563907,-1.72737124,-1.64532164,-0.20584716399999997,-0.7916961739999999,-42.39570730000001,47.81227135,-115.4117598,10.784396833440793,1.839460672483991,131.92258990978524,6.094890909090567,25.388854545455192
59000,59000.0,0.7782745200000001,-11.622384599999998,0.484152218,-1.96021116,0.512557988,-0.432061772,-44.0415197,43.89923175,-106.18278400000001,11.707096791816475,2.073337793266429,123.05184919799991,6.034545454545111,25.372727272727925
59100,59100.0,1.29495542,-8.358136,-0.30377807599999995,-0.6580322239999999,-0.38843689200000003,-0.8975799320000001,-45.253753499999995,40.0077053,-100.603792,8.466133096066134,1.1835450976827544,117.34495592204986,5.974199999999657,25.356600000000647
59200,59200.0,0.8972747999999999,-6.8277556000000015,-1.42738036,0.408087156,-0.57293702,-0.45827025600000004,-44.7769925,38.4787744,-99.2516335,7.035170917553552,0.8457078901236523,115.48398953984119,5.9138545454542015,25.340472727273372
59300,59300.0,1.97562254,-8.8467898,-4.03586134,0.39615173600000003,-0.5495025680000001,-0.15317688,-43.17688029999999,39.0399933,-99.71115125,9.924828315783833,0.6982542357923568,115.45884596185734,5.853509090908747,25.324345454546105
59400,59400.0,3.0706672000000004,-9.0091707,-3.39182593,0.32616500600000004,-0.11290740735,-0.008988189800000001,-42.6482389,39.6738426,-101.2964635,10.104698571616694,0.3477343922728716,116.84974639977968,5.7931636363632935,25.308218181818837
59500,59500.0,3.180141425,-7.05795895,-3.273003425,0.2598541225,-0.015382385900000016,-0.239889529,-41.56868015,40.15159585,-101.626665,8.406098189117081,0.3807304052579497,116.91080049169729,5.732818181817839,25.292090909091566
59600,59600.0,2.4967819015000003,-15.74705535,-5.94835425,0.6183158899999999,-0.33091277750000003,0.8166938840000001,-39.5355986,42.1764365,-105.05943119999999,17.050063105741206,1.0953622533571714,119.914403223599,5.6724727272723845,25.27596363636429
59700,59700.0,-3.87089936,-5.526805105,1.606315615,0.45224380350000004,0.4139724819999999,0.26840133599999993,-38.851166,42.793808500000004,-107.510376,6.971684620612343,0.7178227628854755,122.06249227655428,5.612127272726929,25.259836363637017
59800,59800.0,2.091022445,-9.95643875,-0.3416114776,0.7420433074999999,-0.20377655449999998,0.08826370249999999,-35.6377409,44.015198100000006,-109.53323449999999,10.227174949156717,0.784090108901881,123.30835734934408,5.551781818181476,25.243709090909746
59900,59900.0,2.06845325,-9.67296155,-0.11793212890000004,0.35418243200000005,0.415950012,0.002675628550000003,-34.823609999999995,44.84046965,-112.23167520000001,9.895232797275776,0.5601112068668908,125.7748878858072,5.491436363636022,25.227581818182482
60000,60000.0,1.65588076,-9.603360100000002,0.7533828739999999,0.401689146,0.26521300000000003,0.30626831600000004,-33.966674600000005,45.39237935,-113.89633319999999,9.777233006403367,0.5709503601135731,127.2265797940459,5.431090909090567,25.21145454545521
60100,60100.0,1.9191162,-9.646090699999998,0.28651123500000003,0.35332489,0.210023497,0.41578826799999996,-32.1374511,45.5728151,-116.45957975,9.841087135789957,0.5848657554214397,129.12246686341092,5.370745454545113,25.195327272727933
60200,60200.0,1.58153686,-8.922920199999998,0.752302545,0.204298405,0.297268678,0.209979248,-30.4242707,45.74493465,-118.085939,9.093172319502411,0.41778803520642377,130.2402651247661,5.3103999999996585,25.179200000000662
60300,60300.0,2.82914733,-9.9709796,1.229588333,-0.10291748380000001,0.765136723,0.18771210000000002,-29.66178925,45.4452514,-120.00022549999998,10.444294525596787,0.7951271350932172,131.70105763401804,5.250054545454203,25.16307272727339
60400,60400.0,1.5086365,-13.2488845,-0.640286234,-0.340046694,-0.27434387316000003,-0.243618771,-28.85864265,45.019529999999996,-120.0868226,13.352540180615886,0.5042091530719003,131.45503632704552,5.1897090909087495,25.146945454546128
60500,60500.0,-1.0362838517,-9.6350727,-1.04382936,-2.02807005,-0.137680051,-0.6750427259999999,-29.943928000000003,44.11765657894736,-116.31494052631581,9.752634126197831,2.1420726878220155,127.9544837950665,5.129363636363294,25.130818181818853
60600,60600.0,1.9998779052631581,-11.233888736842106,-0.4515629778947369,-1.5969165842105264,0.026695653052631583,-0.5859278452631579,-31.179046500000002,42.00592,-109.980772,11.424423167147381,1.7019115315356623,121.78880148556448,5.06901818181784,25.114690909091586
60700,60700.0,1.33882749,-6.74425201,-0.9687637345000001,-0.2837577815,-0.5261161784999999,-0.5345420869999999,-33.4091185,40.781402500000006,-108.449553,6.9452060690565025,0.8076229925442234,120.58446129531505,5.008672727272384,25.098563636364307
60800,60800.0,0.273880775,-7.52201135,-1.69194491,0.5741623170000001,-0.4906547515,-0.07658844024999999,-33.417512,41.165924,-109.57489,7.714930877130714,0.7597161289477276,121.72941542392643,4.948327272726932,25.082436363637036
60900,60900.0,4.08724896,-9.232431075,-5.478602485,0.5102905025,-0.195144651,-0.2055313105,-33.53576700000001,42.02957,-112.14218000000001,11.489038075216511,0.5853621752949236,124.36645810168379,4.887981818181476,25.066309090909765
61000,61000.0,2.4630134150000003,-8.3020471,-3.664224285,-0.06696395725,-0.8557655375,-0.228487398,-34.270477,41.8472285,-112.75406,9.40458253007823,0.8882999435817316,125.05656028356465,4.827636363636022,25.050181818182498
61100,61100.0,-0.2915741005,-9.08141383,0.3322944685,1.24384157,0.4838493415,0.6963775834999999,-34.389496,42.429351000000004,-115.7943725,9.093248761065034,1.5058345559599808,128.02880921271742,4.767290909090566,25.03405454545523
61200,61200.0,1.12064589,-7.4106247,3.97747659,0.14634246499999998,1.74486311,-0.21144866850000002,-33.383942000000005,42.6269535,-119.018553,8.636680568643289,1.7638680853452509,130.7553753178309,4.706945454545114,25.017927272727963
61300,61300.0,5.6974029999999996,-14.120972,0.93473816,0.70210266,-0.7840729000000001,0.643219,-31.932068,42.5338745,-121.292875,15.25568702474435,1.2334703643195022,132.4415573491859,4.646599999999658,25.00180000000068
61400,61400.0,1.1651764,-9.209274,0.029724121000000003,0.36120605,0.20448303,-0.09713745,-32.1929935,42.3591615,-124.3118275,9.282739206374496,0.4262848863226164,135.2190291579097,4.586254545454204,24.98567272727341
61500,61500.0,1.2046814,-9.255951,0.9479065000000001,0.34629822,0.24177551,0.014709473,-32.3989865,42.274475,-126.376342,9.382026056382983,0.4226040972433493,137.14215492889372,4.525909090908749,24.969545454546147
61600,61600.0,1.1496277,-9.651000999999999,0.4965973,0.31434629999999997,0.20448303,0.4567871,-31.4796445,41.944885,-128.071595,9.73191004011934,0.5910003050829,138.39397568316556,4.465563636363295,24.953418181818872
61700,61700.0,1.8726653999999998,-9.735992,0.38526917,0.31541443,0.28651428,0.21284485,-30.21698,41.4718635,-129.85306,9.921937726965112,0.4763188275385153,139.62384495311787,4.4052181818178395,24.9372909090916
61800,61800.0,1.775711,-9.253555,0.5061798,0.045898438,0.65190125,0.17131042,-29.7332765,41.0957335,-131.13556,9.43597624432544,0.675595416179668,140.6040121320047,4.344872727272386,24.921163636364327
61900,61900.0,2.258668485,-11.42773275,0.6874816805,0.021125793799999997,0.44901580799999996,0.17380370725000002,-28.807831,40.6677245,-131.87027,11.669699802465608,0.4828454445654474,140.97351300549218,4.284527272726932,24.905036363637056
62000,62000.0,1.207378425,-11.9578184,-2.70503926,-1.160989405,-0.37608795,-0.58737642,-29.878997499999997,40.76538100000001,-131.2027,12.320379477929572,1.3554490377517945,140.6014495557425,4.224181818181477,24.88890909090979
62100,62100.0,-1.129545575,-10.0866258,-0.1565963715,-2.09437786,0.517730738,-0.4741333045,-32.5340275,41.088103499999995,-125.6279,10.166512399548482,2.20945456285052,136.12164306340168,4.163836363636023,24.87278181818252
62200,62200.0,2.20193942,-9.19562765,-0.4406150785,-1.004875943,-0.4560829155,-0.807246405,-34.757995,40.896607,-122.048188,9.466571040833,1.368791083255826,133.328729727468,4.103490909090568,24.85665454545525
62300,62300.0,0.551845539,-7.691350555,-1.77047352,0.20393218800000001,-0.6879966725,-0.65981903,-37.93669223809524,40.29482933333333,-121.39921619047621,7.911999039620869,0.9758779304471336,133.4191924203943,4.0431454545451135,24.84052727272797
62400,62400.0,1.716870925,-7.697097765,-2.4525116,0.453305818,-0.3585624675,-0.11082916279999999,-39.84520035,39.99137925,-122.6706685,8.258837043825636,0.5890359042852771,135.03724945541802,3.9827999999996586,24.8244000000007
62500,62500.0,3.4646888999999996,-9.59562935,-4.57516305,0.4953803975,-0.2564552285,0.07884063965,-40.1457979,39.750671399999995,-124.3551635,11.181162150339338,0.5638271192711277,136.58704852460355,3.922454545454205,24.808272727273437
62600,62600.0,3.00776371,-6.4564208,-3.709893814,-0.07192382900000001,-0.206811523,-0.425248722,-41.9128415,38.9636232,-125.02593975,8.056208526883731,0.5026203875290348,137.5003898949383,3.86210909090875,24.792145454546162
62700,62700.0,0.7350708029999999,-16.9929414,-5.2192032,1.303123457,0.144828794,1.05791629,-41.10565185,38.805236900000004,-129.01801799999998,17.851940480269047,1.6991102946996952,140.8592374424459,3.801763636363296,24.77601818181889
62800,62800.0,-4.884240900000001,-4.6123995,3.609425395,0.340652465,0.380471803,0.118574521,-40.7971192,38.65524275,-130.8173395,7.6854838601731235,0.6107057308119191,142.3791219576907,3.7414181818178416,24.75989090909162
62900,62900.0,2.7515761354,-11.0335294,-0.9777481,0.7817779559999999,-0.148222351,0.234370423,-39.6578217,38.42735370000001,-133.3272565,11.443860089858966,0.8332226364093565,144.31073457399128,3.681072727272386,24.74376363636435
63000,63000.0,2.39209137,-9.7729855,0.342298889,0.426722727,0.5640121499999999,-0.14166412,-39.8072055,37.67036435,-135.410616,10.070468313835274,0.7222922675107339,146.0811821825664,3.6207272727269317,24.72763636363708
63100,63100.0,1.49552996,-9.4178691,0.7102767945,0.307102201,0.313843525,0.1933006325,-39.84733595,37.23724335,-136.922529,9.565052165710599,0.4799654144249516,147.38479494385854,3.5603818181814777,24.71150909090981
63200,63200.0,1.679756145,-9.50704385,0.6382774299999999,0.204466244,0.301110835,0.337596895,-38.60458325,36.97624130000001,-137.559505,9.676000540597627,0.4965813840175118,147.58144816739429,3.5000363636360228,24.695381818182536
63300,63300.0,0.9547981275,-9.8661795,0.48834228049999995,0.1863449105,0.33615494049999994,0.2145515415,-37.6535034,36.631775,-139.0872205,9.924521864385687,0.4408857373065287,148.67729194793776,3.4396909090905687,24.679254545455265
63400,63400.0,1.420827525,-9.4868716,0.533418274,0.1092796351,0.6047630285,0.246618656,-36.4725484,36.4457698,-139.42192250000002,9.610266140275767,0.6623264857640156,148.6507820634119,3.3793454545451143,24.663127272727994
63500,63500.0,3.210733055,-10.67272855,1.0879669,-0.0692001335,0.46995238899999997,0.2361190805,-34.75952145,36.2813585,-139.73327500000002,11.198219293767801,0.5327243588439337,148.4924841275843,3.31899999999966,24.647000000000723
63600,63600.0,1.505273485,-12.1476152,-2.751788245,-0.88008653,-0.6526779105,-0.439093775,-35.59699985,37.27889915,-138.191757,12.549141326982904,1.186184127115555,147.49224515582446,3.2586545454542053,24.63087272727345
63700,63700.0,-1.5834904610526317,-9.988517052631579,-0.5957175557894737,-1.9914518631578944,0.14084584842105266,-0.6864069731578947,-38.9989471,38.2271565,-131.8585175,10.144568425163627,2.1135625152717363,142.71987835972382,3.1983090909087517,24.61474545454618
63800,63800.0,1.68687744,-10.801895,-1.17407228,-1.19236452,-0.664550788,-0.691766352,-40.940246,38.2482145,-126.46629525,11.000339224518395,1.5332712727120352,138.3215423827645,3.1379636363632963,24.59861818181891
63900,63900.0,1.46063234,-7.280020139999999,-1.5978516,0.09808655,-0.414212036,-0.68197632,-43.50761425,37.41333025,-124.66278175,7.595094330163296,0.8069228077287967,137.23517031526413,3.0776181818178414,24.58249090909164
64000,64000.0,0.33176574400000003,-7.863488799999999,-2.87898562,0.239132688,-0.530761708,-0.197702028,-45.2025609,36.2848665,-124.267732,8.388593064385532,0.6153783247493623,137.1216134973579,3.0172727272723874,24.56636363636437
64100,64100.0,2.1755417,-7.9899591,-2.787342055,0.50997237,0.11351089475,-0.006271362150000001,-45.585632000000004,36.141968,-124.642944,8.737499043028668,0.5241529642096122,137.55055501429132,2.9569272727269333,24.550236363637094
64200,64200.0,4.73123075,-10.765322,-5.07572404,0.12046661,-0.48452301049999996,-0.163236233,-45.7629402,35.5798344,-125.58197,12.80935055593024,0.5312900417926599,138.3149349175119,2.8965818181814784,24.534109090909823
64300,64300.0,-0.16216736199999998,-9.6890628,-0.1298385645,0.89213713,0.236341855,0.7521881159999999,-45.3601084,35.149232000000005,-127.338254,9.710822673537056,1.1909307871875998,139.67158072022102,2.836236363636024,24.517981818182555
64400,64400.0,-0.6988159279999999,-7.30934752,2.2074936000000003,0.541569521,1.1152923769999998,-0.08447265649999999,-44.3560784,34.8318488,-129.690246,7.723113565932769,1.2446830782178573,141.4226256773115,2.775890909090569,24.501854545455284
64500,64500.0,4.95377198,-13.290904600000001,0.254432679,0.61347199,-0.488992294,0.39064636399999997,-43.387756,34.5492554,-131.404114,14.19012258769986,0.8816102933056834,142.63028210967684,2.7155454545451154,24.485727272728013
64600,64600.0,1.20181274,-9.650167699999999,-0.54152374,0.537307742,0.251359557,0.0184402467,-43.670044399999995,33.878173600000004,-133.61236399999999,9.744330564097151,0.5987103615243421,144.59351046711345,2.6551999999996605,24.469600000000742
64700,64700.0,1.15177003,-9.1755055,1.024404868,0.238706967,0.26201019600000003,0.18068085,-43.129272,33.4088132,-135.245054,9.307701001711104,0.4001405078608477,145.8339830680572,2.594854545454206,24.453472727273468
64800,64800.0,1.20971829,-9.662971800000001,0.28674317,0.37857513200000004,0.479853818,0.433471679,-41.6909792,33.141174199999995,-136.749878,9.744210851092637,0.74959762671419,146.7552215986719,2.5345090909087515,24.4373454545462
64900,64900.0,2.400830055,-9.59275505,0.1670341516,0.3045921325,0.360551455,0.2481559775,-40.05148771428571,32.68083828571429,-138.85737857142857,9.89215900735913,0.5344298188861432,148.16757116791814,2.4741636363632966,24.42121818181893
65000,65000.0,2.384196445,-9.2778048,0.4223869300000001,-0.0325111393,0.7401046714999999,0.04997482305,-39.18418855,32.296905800000005,-139.740753,9.590886653174561,0.7426712244394036,148.68091452827142,2.4138181818178426,24.40509090909166
65100,65100.0,3.670954165,-12.014252699999998,0.8855964540000001,-0.30175094,0.1533050555,0.0011863706000000002,-38.4351354,32.24349865,-140.455931,12.600912299732814,0.3578783459476393,149.14692085012126,2.353472727272388,24.388963636364387
65200,65200.0,0.30956115900000003,-11.034792,-1.920342295,-1.95301665,-0.544921875,-0.82674406,-40.8891304,32.78411935,-138.535846,11.215806000801013,2.1907241361003185,148.11867884217546,2.2931272727269336,24.372836363637123
65300,65300.0,1.10838471,-11.1919639,0.8610580154999999,-1.854373935,0.3463775585,-0.47461776549999996,-43.0593112,34.835815000000004,-132.63183600000002,11.290149228986172,1.953451871221583,143.73222946159927,2.232781818181479,24.356709090909842
