Unnamed: 0,st,ax,ay,az,gx,gy,gz,mx,my,mz,AccTotal,GyrTotal,MagTotal,lat,lng
20000,20000.0,3.16182393,-9.4561159,0.8236511190000001,0.200779723,0.372264098,0.40011596,-43.58934671428572,43.86967314285715,-140.2132342857143,10.005006286068543,0.5822380781609142,153.24623650634925,33.19,32.63
20100,20100.0,1.91457059,-9.4880719,1.07720029,0.1052307126,0.353521729,0.217111207,-42.084045200000006,44.5495604,-141.75018,9.739089256898056,0.4281135962677747,154.4309500652269,33.13646774193548,32.6156935483871
20200,20200.0,3.3939468,-9.8005154,1.57458652,0.06219940180000001,0.488908377,0.413331615,-40.2548218,44.826966,-142.736818,10.491211666644906,0.6432992159416258,154.93174526429863,33.08293548387097,32.601387096774204
20300,20300.0,1.90212094,-12.42061765,-1.20184023,-0.486633305,-0.414857486,-0.370170586,-39.692993200000004,45.6555182,-142.517398,12.626242195170065,0.7393755673347813,154.8262997750941,33.02940322580645,32.58708064516129
20400,20400.0,-1.134087395,-10.0681873,-0.6252075214999999,-2.043681365,-0.0840454115,-0.75813751,-42.299499600000004,46.68609620000001,-136.306152,10.157292966119153,2.1822470199856103,150.16144492491662,32.97587096774194,32.57277419354839
20500,20500.0,2.843223535,-10.8855762,-0.24458313,-1.244195536,-0.0799896216,-0.75227511,-44.999695200000005,47.071533,-129.821782,11.256952854169114,1.4605286365509458,145.23966660364076,32.922338709677426,32.55846774193549
20600,20600.0,1.937372555,-7.602458775,-0.797940845,-0.12897338695,-0.6153442404999999,-0.741838095,-48.545226,45.2236942,-126.8026724,7.886625647704451,0.9745122667094294,143.11139193800673,32.86880645161291,32.544161290322585
20700,20700.0,0.8541175795,-7.279247265,-2.089377615,0.1494400015,-0.603624729,-0.22199020774999997,-50.545655200000006,44.434204799999996,-125.70312520000002,7.624930518182911,0.6619461020540385,142.58529269504604,32.8152741935484,32.52985483870968
20800,20800.0,3.306853455,-8.0729773,-2.785074675,0.39103622,-0.349770365,0.193467711,-50.762024,44.9093626,-125.54748799999999,9.158283746551593,0.5596492286909712,142.67381200883986,32.76174193548388,32.51554838709678
20900,20900.0,6.04366536,-11.005403925,-4.31945265,0.332933042,-0.384071347,-0.130372622,-50.08728,45.571289,-126.316832,13.28813185374428,0.5447702692984897,143.32291181554362,32.70820967741937,32.50124193548388
21000,21000.0,-1.838040154,-9.08039775,-0.20322493850000006,0.8733894315,0.20955429475,0.6798004009999999,-50.8169548,45.505371999999994,-127.569581,9.34745304428527,1.13525211817677,144.66228123790242,32.654677419354854,32.486935483870965
21100,21100.0,1.84035026,-6.7236084,3.15608518,0.160522456,1.65920718,-0.22795410600000002,-48.8809208,46.619262799999994,-129.34326,7.921785342519626,1.6837178192375453,145.91910067516218,32.60114516129034,32.47262903225807
21200,21200.0,5.29469912,-13.52171,1.883563254,0.66844176,-0.235046388,0.8618133520000001,-47.882996,46.8719482,-132.154538,14.688738050481927,1.124059733692743,148.17214736060683,32.547612903225826,32.458322580645174
21300,21300.0,-0.07141723600000005,-8.7787966,1.53136904,0.494802856,0.30121155,0.08416748,-47.252503999999995,46.670228,-134.688416,8.943687205751756,0.5887281039395451,150.17292411982868,32.49408064516131,32.44401612903226
21400,21400.0,2.12884524,-8.980627,1.17248228,0.3230835,0.37450256200000004,0.091409304,-46.287537,46.6558828,-136.855162,9.304825907786302,0.5037558080338025,151.81792373211442,32.440548387096804,32.42970967741936
21500,21500.0,1.85471194,-9.5367984,0.416149906,0.273648072,0.18147888399999998,0.371569824,-45.4977408,46.8099974,-138.604426,9.724572375798132,0.4962671245584552,153.2071837969617,32.38701612903228,32.41540322580646
21600,21600.0,2.58086856,-9.0665801,0.6146423320000001,0.23594055,0.361300656,0.346438598,-43.826599,47.145386,-139.55566199999998,9.447286484555327,0.5537307678410124,153.68554379458124,32.33348387096777,32.401096774193554
21700,21700.0,2.59691998,-9.60395615,1.322486085,0.0459495542,0.3938438375,0.31607513499999995,-42.271805,47.557068,-140.5213115,10.037153632457468,0.5070895326736236,154.25585873404788,32.279951612903254,32.386790322580644
21800,21800.0,3.82286227,-10.224655300000002,0.93270261,-0.055624389299999986,0.262220763,0.13657532249999998,-40.9059148,47.58194005,-141.69547649999996,10.955893584597623,0.30366880462733964,154.96766023385942,32.22641935483874,32.37248387096775
21900,21900.0,1.41083526,-12.4724409,-1.99731903,-0.944155885,-0.7593673759999999,-0.7948929100000001,-42.3458098,47.6177216,-139.0528105,12.71663215750822,1.4512881176158339,152.9589022598131,32.172887096774225,32.358177419354845
22000,22000.0,-1.766092692,-10.4360606,0.1635032635,-2.01703947,0.3554840075,-0.7373726025,-46.4647674,47.29415805,-132.11898349999998,10.596344843910275,2.17705954772844,147.8224333926022,32.11935483870971,32.34387096774194
22100,22100.0,2.055231495,-9.5133363,-1.2758796300000002,-0.863674925,-0.14508285699999998,-0.86450043,-48.60366745,45.7141885,-126.2691496,9.816215988686995,1.2323880418303366,142.81559872973332,32.0658225806452,32.32956451612904
22200,22200.0,1.944310735,-7.650348125,-1.30976946,0.264436344,-0.41038208600000003,-0.618798093,-51.5491484,43.5773457,-125.382768,8.002698801604947,0.7889426661006556,142.39849498291574,32.01229032258068,32.31525806451614
22300,22300.0,2.656892415,-7.749048624999999,-2.920168315,0.15902404650000002,-0.32899703350000004,-0.0832885731,-52.2029877,42.55516095,-124.70153799999999,8.697560518524257,0.3753715673033718,141.7271492298769,31.958758064516164,32.30095161290323
22400,22400.0,2.85836871,-7.78041055,-2.550737785,0.3400657675,-0.375281526,0.1596923785,-52.012253,42.722244,-125.29365449999999,8.673081042450317,0.5312696237876923,142.22860189754817,31.90522580645165,32.28664516129032
22500,22500.0,5.40729582,-9.78028475,-4.041191844999998,0.40116273399999997,-0.17245330350000002,-0.05922470065,-51.43577110526316,42.97894894736841,-126.3769036842105,11.88384899515132,0.4470069274589228,143.05229447673955,31.85169354838713,32.27233870967743
22600,22600.0,-1.788066145,-8.0235381,-0.5107566835,0.5911026100000001,0.5470840480000001,0.48949966,-51.6156006,42.590943,-127.03308200000001,8.236513359851338,0.9436666161931742,143.58163113267514,31.798161290322607,32.258032258064524
22700,22700.0,5.4229192400000015,-9.988156145,-0.25404128800000003,0.0994209322,1.4927727000000002,0.20624312984999998,-48.8244628,43.8916016,-129.283142,11.413860700101518,1.5107176468030694,144.99807128091783,31.74462903225809,32.24372580645162
22800,22800.0,1.878829165,-9.63513985,-0.032821656500000004,0.633594515,0.07660598410000001,0.7457542454999999,-47.3178104,43.8568112,-132.26288,9.825764931828026,0.9819634928142784,147.16006805441341,31.691096774193568,32.22941935483872
22900,22900.0,1.4630264,-9.3835645,1.066423,0.494474789,-0.0272033685,0.116235349,-46.121522,44.3322756,-134.255376,9.558810769117596,0.509264641221455,148.7180626247453,31.637564516129054,32.21511290322581
23000,23000.0,1.013511697,-9.1912004,-0.403016659,0.38763580299999995,0.198422245,-0.009158325000000002,-45.89273631578947,43.58102821052631,-136.0519436842105,9.260725520338683,0.437656993132664,150.05198105006687,31.584032258064536,32.20080645161291
23100,23100.0,1.92834019,-9.3894315,0.467033377,0.303153989,0.34201964,0.28677978499999995,-44.992752100000004,43.582153000000005,-137.4777965,9.596870913454024,0.5395716016768527,151.07586182000804,31.530500000000018,32.18650000000001
23200,23200.0,2.13267978,-9.4702394,0.54232942,0.313809208,0.18638611,0.33822937299999994,-43.53706475,43.92341635,-138.541948,9.722996696812796,0.4976980705636185,151.71890858881528,31.476967741935507,32.172193548387106
23300,23300.0,2.44452818,-9.434437800000001,0.9033737,0.14401092799999998,0.282678223,0.257696535,-42.1115108,43.79264795,-139.75403,9.788094828842663,0.4091281702672378,152.38894898768152,31.423435483870982,32.1578870967742
23400,23400.0,2.73111576,-9.4732376,1.18888394,0.0306564333,0.44789886,0.220091246,-41.00723275,43.8879396,-140.2768725,9.930688762121958,0.4999968559247552,152.59536930484876,31.36990322580647,32.1435806451613
23500,23500.0,2.72752073,-11.7877045,0.481163025,-0.241194153,0.14397887939999998,0.12837524449999999,-39.8403932,44.66705345,-140.377271,12.108722240288401,0.31921636970572154,152.60468710253602,31.316370967741946,32.1292741935484
23600,23600.0,0.8667480730000001,-10.284991900000001,-2.25852051,-1.57372744,-0.400367727,-0.9179305990000001,-41.69181875,44.47524895,-137.2542545,10.580499301495212,1.8667828247489893,150.18450994113334,31.26283870967743,32.11496774193549
23700,23700.0,1.116580196,-11.082727,0.1013198851,-1.63945773,0.30888824,-0.58141173,-44.62631205,44.524155,-130.47676299999998,11.148147833814654,1.7674404033419613,144.9080813648109,31.209306451612917,32.10066129032259
23800,23800.0,1.91241758,-8.999424900000001,-0.76849365,-0.434860234,-0.352542113,-0.8917251340000001,-47.1263125,42.8269961,-126.50337150000001,9.232599256801382,1.0563102919279554,141.6270789672949,31.1557741935484,32.086354838709696
23900,23900.0,1.24922332,-7.80770419,-1.08249513,0.455810547,-0.31035615,-0.64458769,-50.1136787,41.2329862,-126.217423,7.980872846222228,0.8535393456514162,141.9240261596629,31.10224193548388,32.072048387096785
24000,24000.0,2.6165527,-8.2168686,-3.01737366,0.17287750100000002,-0.551211534,-0.243716433,-51.63528375,40.445403799999994,-125.88294825,9.136452695860989,0.6272302023473346,141.94564864092496,31.048709677419357,32.05774193548388
24100,24100.0,3.816700715,-8.779034000000001,-2.69403687,0.3649391175,-0.387112429,0.05795974695,-51.737213399999995,39.688720399999994,-125.878752,9.948880792115519,0.5354577179375258,141.7652842967648,30.99517741935484,32.04343548387098
24200,24200.0,2.517242505,-7.73054445,-3.265471675,0.37431564450000004,-0.5027908170000001,-0.09762878244999999,-52.032777,39.7201536,-126.1413568,8.766317846446269,0.6514800338114813,142.11528502165012,30.941645161290324,32.029129032258076
24300,24300.0,2.18014146,-14.27994725,-4.5680381400000005,0.638871,0.0416664121,0.942237865,-50.764771100000004,40.8877559,-128.55118199999998,15.206806312592034,1.1477913816532053,144.13345576926244,30.888112903225807,32.01482258064517
24400,24400.0,-2.93152999,-6.927350574999998,1.7837249355000002,0.422467049,0.8684654190000001,0.31835937000000003,-49.2959609,41.0511777,-131.03912400000002,7.7716461853965075,1.0427979991406775,145.8991631654202,30.83458064516129,32.00051612903227
24500,24500.0,5.00260528,-10.42031475,-0.5120727506,0.6546920749999999,-0.26449966225,0.333005528,-47.1345519,41.7771909,-133.209081,11.603673216438654,0.7880107005473594,147.34888234708217,30.781048387096767,31.98620967741937
24600,24600.0,2.471945175,-9.42605995,0.1496231085,0.41985551,0.299611665,-0.0755668671,-47.008056700000004,41.217651399999994,-135.433501,9.74663736559384,0.5233393338985493,149.16751686292776,30.72751612903225,31.971903225806464
24700,24700.0,1.6885054842105265,-9.339570421052633,0.9267369263157894,0.2596218684210527,0.3013651021052631,0.22210372578947368,-46.64505,41.22162,-136.816404,9.538961464845075,0.4560305759018296,150.31246150736268,30.67398387096773,31.957596774193558
24800,24800.0,2.0381073,-9.5260224,0.48678589,0.231469728,0.34616394,0.369235232,-45.4237364,41.2211619,-138.44787399999998,9.755665532585773,0.5568177039889465,151.42782368297497,30.620451612903214,31.943290322580662
24900,24900.0,2.2875824,-9.304562599999999,1.20480654,0.197372434,0.13695069,0.236492918,-44.111937899999994,41.444702,-139.385988,9.66075267148952,0.3371277981225991,151.96046154273603,30.5669193548387,31.928983870967755
25000,25000.0,2.26340632,-9.7283358,0.923721274,0.123452757,0.284814456,0.340896608,-42.8300479,41.763153,-140.388183,10.03233136632486,0.4611152674877059,152.60243365834998,30.513387096774178,31.914677419354852
25100,25100.0,3.18301396,-9.953631800000002,0.9960357759999999,-0.08066100999999999,0.252639772,0.23223572,-41.485748,41.843262100000004,-140.89279299999998,10.498441582415069,0.3561220477077489,152.71775362360282,30.459854838709663,31.900370967741946
25200,25200.0,2.9385742,-12.1002622,-2.0048614,-0.636297592,-0.784927388,-0.41054076799999994,-41.6584778,42.538756400000004,-139.500582,12.637351195176466,1.097450623452511,151.67574309313758,30.406322580645146,31.88606451612905
25300,25300.0,-1.0398712,-11.6654814,0.423333736,-2.01198728,-0.192001345,-0.9627746559999999,-45.2729805,42.230377,-133.26065400000002,11.724204582507449,2.2389139172917853,146.94101622057948,30.352790322580628,31.871758064516143
25400,25400.0,2.5957183999999995,-10.990558625,-1.210468275,-1.0385437,-0.4389266975,-0.7975502,-47.664260999999996,41.448976,-128.010942,11.358872338322735,1.384993112901172,142.74745112798232,30.29925806451611,31.857451612903237
25500,25500.0,0.3607292125,-6.7737693750000005,-0.7118721050000001,-0.007637023999999998,-0.6876640350000001,-0.55067445,-50.537109105263156,39.78006421052632,-125.54241210526315,6.8295326845305,0.8846970970944097,141.0584340284197,30.24572580645159,31.843145161290337
25600,25600.0,1.2253379999999998,-7.984333,-1.889518725,0.2216644325,-0.3097686725,-0.04787444945,-51.66511525,39.496231,-125.413895,8.308355418530125,0.3855761245204689,141.27244573583837,30.192193548387074,31.828838709677434
25700,25700.0,3.2502365,-8.5149535,-2.6960716000000002,0.38065720000000003,-0.316421515,-0.118175507,-51.5930175,39.6614085,-125.37994375,9.507006616586754,0.5090607731102111,141.26223807514708,30.138661290322556,31.81453225806453
25800,25800.0,4.6236074999999985,-9.93141525,-4.494419000000001,0.16201400425,-0.3177528375,-0.192222595,-51.69410600000001,39.3352525,-126.3259895,11.843414346003366,0.4138563349292088,142.04857906818648,30.08512903225804,31.800225806451632
25900,25900.0,0.9266586625,-6.607669825,-1.35770415,0.5625534025,-0.06928634724999999,0.19367218000000005,-52.297592,38.5318755,-125.89149375,6.813111852258215,0.6061258010977982,141.66340171565218,30.03159677419352,31.78591935483873
26000,26000.0,5.81616378,-15.8406171,-6.5656936,0.44685975640000003,0.0265914907,0.498336795,-50.030134999999994,40.2122505,-128.8288125,18.146424228392828,0.6753838002121896,143.93399828856911,29.978064516129,31.771612903225822
26100,26100.0,-2.25266267,-6.7067290999999996,2.18200077,0.41671447,-0.036474612,0.443154902,-49.6551505,40.34004225,-131.4346275,7.52293168030654,0.6254181746585692,146.1782953741918,29.924532258064485,31.75730645161292
26200,26200.0,1.94114684,-9.7594559,-0.6445983972,0.676640323,-0.20510864399999998,0.268988035,-48.155975,40.719223,-133.560945,10.004824477102302,0.7581981017826197,147.70113560013144,29.870999999999967,31.743000000000013
26300,26300.0,2.67640376,-9.8779663,0.21791229200000006,0.559564202,0.253282169,-0.0492095961,-47.677611999999996,40.275574,-135.7589725,10.250064414760828,0.6191991268078458,149.4181725284746,29.81746774193545,31.728693548387113
26400,26400.0,1.149737555,-9.1522917,0.99494779,0.291860964,0.350537105,0.27058410899999996,-47.247314,40.34996,-137.16850250000002,9.280532622561054,0.5307099941507002,150.58429421522092,29.76393548387093,31.71438709677421
26500,26500.0,2.24724575,-9.676620300000002,0.7959960850000001,0.24318695,0.400926214,0.277929686,-45.57342475,40.2549735,-139.29023750000002,9.966670299667,0.5451254464134198,151.98430948215653,29.71040322580641,31.70008064516131
26600,26600.0,1.95611036,-9.514353199999999,1.272437305,0.18491668600000002,0.3045165995,0.206513977,-44.4572455,40.1832575,-140.5578625,9.79673813888659,0.4124380419073924,152.79945322462052,29.65687096774189,31.685774193548408
26700,26700.0,1.80401763,-9.562235099999999,0.96281205,0.0562294007,0.4335746725,0.2412872305,-43.2189925,40.203858,-141.7518625,9.778690894369786,0.4994954529738995,153.55094959921684,29.603338709677377,31.6714677419355
26800,26800.0,2.3551613,-9.649268225,1.206357595,-0.016742706200000002,0.583725725,0.38473053100000004,-41.2269595,40.7649985,-142.86194,10.00582166401213,0.6998286117052644,154.17855484933514,29.54980645161286,31.6571612903226
26900,26900.0,3.154466215,-12.05328445,1.2301895095000002,-0.250091555,-0.16989822050000006,0.026744845999999992,-39.7171025,41.23001175,-142.9176375,12.538592140379732,0.33696226622911385,153.95743538917768,29.49627419354834,31.64285483870969
27000,27000.0,-0.22871704399999998,-9.49262265,-1.212853215,-1.904289215,-0.11237411439999999,-0.80692673,-41.387558,42.21954325,-139.46189750000002,9.573845842772528,2.0720578810529524,151.4770672425177,29.442741935483824,31.628548387096792
27100,27100.0,1.935218775,-11.33598105,0.2720870875,-1.50598375,-0.31381836,-0.758933265,-43.74437842105264,43.0999747368421,-133.92245789473685,11.509260942616756,1.7262782497184717,147.33125581214648,29.389209677419306,31.61424193548389
27200,27200.0,0.463028729,-8.562897675,-0.4057090637499999,-0.444070435,-0.29106903,-0.824082179,-46.78846095238095,43.01380119047619,-129.9814157142857,8.588775855274344,0.9871749665915408,144.6879690253262,29.335677419354788,31.599935483870983
27300,27300.0,1.26118774,-8.016241599999999,-1.13504642,0.29175415000000005,-0.5889160179999999,-0.61762696,-49.5962514,42.0413208,-129.728702,8.194889374067206,0.9061747162907212,145.1096302781826,29.28214516129027,31.585629032258087
27400,27400.0,2.75205992,-8.1737824,-2.79350892,0.0878662128,-0.41123657,-0.286975104,-51.3629152,41.23260560000001,-128.540348,9.067539053958805,0.5161716816299277,144.43304353802895,29.228612903225752,31.57132258064518
27500,27500.0,3.94173892,-9.1003386,-3.39852608,0.4042511,-0.413156126,0.10163269039999999,-51.600646999999995,41.123962,-129.35943999999998,10.494107629919547,0.5885965040504727,145.2159486368824,29.175080645161234,31.557016129032284
27600,27600.0,2.6852661600000003,-7.25344236,-2.51099544,0.137930298,-0.40398559799999995,-0.371343996,-52.4017332,41.241760600000006,-129.21112,8.143313969666853,0.5759377905436686,145.40415458924866,29.12154838709672,31.54270967741937
27700,27700.0,0.8668670839999999,-10.0884244,-1.22148128,0.96564635,0.27138976800000003,0.8247344999999999,-51.737365999999994,41.7224118,-131.953128,10.202397596482246,1.3073669704037347,147.74759797993696,29.0680161290322,31.52840322580647
27800,27800.0,2.47887878,-6.4000319700000015,1.3375053175000002,0.036150359900000005,1.44237671,-0.1236724835,-49.7869874,42.7844244,-134.843444,7.489041633792106,1.4481879388593069,149.97350626852185,29.01448387096768,31.51409677419357
27900,27900.0,3.66383515,-11.8083545,0.15183639550000005,0.68291777,0.389687355,0.6628166035,-48.403625399999996,43.3587646,-138.02368399999997,12.403967619283796,1.0284944771810376,152.55653562649925,28.960951612903166,31.49979032258066
28000,28000.0,0.5049827605,-9.934774725,0.844599148,0.618902582,-0.13964614882499998,0.1813178985,-47.454225,43.2461552,-139.516596,9.992890963015052,0.6723471563217482,153.58067103261772,28.907419354838645,31.48548387096776
28100,28100.0,1.21533662,-8.88970015,0.5044998079999999,0.21048050199999999,0.6604744085,-0.142836762,-47.309571000000005,42.783203,-142.09441800000005,8.991354530466042,0.7086882333785635,155.75438147858438,28.85388709677413,31.47117741935486
28200,28200.0,1.800543975,-9.36400005,0.4372833275,0.2451515225,0.437835697,0.2696304335,-46.2832648,42.858887,-143.53027600000001,9.545756713697829,0.5697533723898184,156.78006380297188,28.80035483870961,31.45687096774196
28300,28300.0,2.467514005,-9.4944754,1.0296112185,0.276364899,0.21706085149999998,0.367361458,-44.500122,43.2168588,-145.53894,9.866165899735602,0.5094178588671975,158.20728313641638,28.746822580645087,31.44256451612905
28400,28400.0,1.9516754,-9.579773,0.92097475,0.198760985,0.210876465,0.200065615,-43.4155278,43.2354746,-147.13470800000002,9.820160222365118,0.3540011397615588,159.38268082261925,28.69329032258057,31.42825806451615
28500,28500.0,2.21863555,-8.894432,0.96167755,0.04322815,0.6039657700000001,0.235748295,-41.842650000000006,43.591004,-148.17841,9.221505474364314,0.6503947397676639,160.02454028071566,28.639758064516048,31.41395161290325
28600,28600.0,3.2253952,-10.9612275,2.1779327,-0.085128785,0.04203796500000001,0.26664734,-39.7579956,43.959350799999996,-148.69629400000005,11.631809392565597,0.3109479375318162,160.0741060965785,28.586225806451534,31.399645161290344
28700,28700.0,0.623497015,-11.984749,-3.2706756500000003,-0.85158537,-0.4682312,-0.589294425,-41.36077879999999,44.8944088,-147.99896,12.440481417382484,1.1596445258590755,160.09369402636398,28.532693548387016,31.385338709677445
28800,28800.0,-1.242187485,-10.53685,0.57740784,-2.0718536,0.005279541,-0.77571106,-44.9853516,47.3446652,-140.41839199999998,10.650985880863471,2.2127012448162886,154.86395929596364,28.479161290322498,31.371032258064538
28900,28900.0,2.34073635,-9.61328875,-0.030120850000000032,-0.89207455,0.15601349,-0.98770905,-48.1744392,47.8860468,-134.114688,9.908953990245939,1.3529273868474103,150.3356665644941,28.425629032257987,31.356725806451635
29000,29000.0,1.5000538052631578,-7.36875594736842,-1.5884327052631582,0.2966846668421053,-0.7313714421052632,-0.5334560963157895,-51.80587775,46.29783605,-133.0036205,7.685821106927736,0.9559325337011269,150.05773507410382,28.372096774193462,31.34241935483873
29100,29100.0,2.720996875,-8.85468275,-2.47980813,0.2413772565,-0.3386428885,-0.12115936449999999,-53.4059892,45.4671476,-132.75413450000002,9.604563227075444,0.4390294243131331,150.14372419631246,28.31856451612895,31.328112903225826
29200,29200.0,2.984055305,-8.13187995,-2.988220985,0.094101714,-0.5285713314999999,-0.10187835769999999,-54.252548100000006,45.46676775,-132.32109,9.163900190318252,0.5465017300331618,150.06489243817356,28.265032258064426,31.31380645161293
29300,29300.0,4.09682238,-8.56523215,-2.88472673,0.1398536655,-0.3205307065,-0.04468307625,-54.91302525,44.86022855,-131.537628,9.923533196665831,0.3545403890206855,149.43249799858341,28.21149999999991,31.299500000000023
29400,29400.0,0.964067825,-9.6718336,-2.2255493200000003,0.774595652,-0.048036193849999985,0.495463562,-54.73167405,45.02647435,-132.90283449999998,9.981270508674916,0.9282673698795872,150.61925735769825,28.157967741935398,31.285193548387124
29500,29500.0,5.654668385,-12.63878575,-3.03424993,0.11236495699999999,0.423405449,0.131997681275,-52.6271816,45.58075095,-134.8291805,14.236163698006607,0.5470325989810065,151.74387740143803,28.10443548387088,31.270887096774217
29600,29600.0,0.2656860440000003,-8.5707366,0.81263122,0.687399304,0.20448608,0.5040893479999999,-52.169876200000004,45.4965972,-137.77565149999998,8.679595266369496,0.8767035913872679,154.18794431861073,28.050903225806362,31.256580645161318
29700,29700.0,1.029193096,-9.583969,0.77313232,0.48456726,-0.156634522,0.27996521,-50.8384706,45.11970505,-140.13496350000003,9.670675432415734,0.5813177160098726,155.75038396017123,27.997370967741837,31.24227419354841
29800,29800.0,1.54825438,-9.5233946,-0.22740783600000006,0.39487914799999996,0.403906264,-0.212835692,-50.69114725,44.38575715,-142.33162000000004,9.657212495004119,0.6214671089582253,157.47390649333076,27.943838709677323,31.22796774193551
29900,29900.0,2.2713104200000003,-9.5700712,0.7439208959999999,0.15369568,0.547720344,0.14829102,-50.26840215,44.08630365000001,-143.9324915,9.864038410891252,0.5879299840868216,158.7044073486214,27.890306451612805,31.213661290322605
30000,30000.0,2.4671509,-9.611258,0.70968018,0.150292968,0.44481506200000004,0.283798216,-48.83018465,44.0213771,-145.9997545,9.948225710403804,0.5488219035609283,160.119420278506,27.836774193548287,31.199354838709702
30100,30100.0,2.3464814,-9.384762599999998,1.18206178,0.225711062,0.294183352,0.273565672,-47.37014755,43.9211286,-146.8868295,9.746193085149217,0.4608125446107755,160.46418821108213,27.78324193548377,31.1850483870968
30200,30200.0,2.01704408,-9.5439786,0.7525421160000001,0.159451296,0.38047179999999997,0.36454468,-45.63201875,43.90106205,-147.96791399999998,9.784533555679614,0.5512609345067945,160.9475225865167,27.729709677419248,31.170741935483893
30300,30300.0,3.45822908,-10.1002096,1.44901577,-0.042945862040000005,0.416799163,0.33519516250000003,-43.40927135,43.97514355,-149.40009700000004,10.774088599805593,0.5376406226813505,161.67439265284503,27.67617741935473,31.156435483870997
30400,30400.0,2.291839595,-12.4310332,-1.367822286,-0.653611005,-0.6709472645000001,-0.417045585,-43.53546145,44.3624876,-147.8822325,12.723634955036864,1.0263483583955384,160.4137468166883,27.62264516129021,31.14212903225809
30500,30500.0,-1.153067785,-10.07561195,-0.2758857749999999,-1.95392229,-0.15386123545,-0.703543865,-47.22603,45.234297600000005,-140.85258249999995,10.178580443062922,2.087719276786778,155.29338635713606,27.569112903225694,31.12782258064519
30600,30600.0,2.02421873,-10.73808615,-0.732637785,-1.173300175,-0.1992431645,-0.6932647500000001,-49.63294925,45.934371399999996,-134.29733149999998,10.959767462882471,1.3789422214052502,150.36378999431102,27.51558064516118,31.113516129032284
30700,30700.0,1.589133475,-7.58737341,-0.6891258060000001,-0.05487518255,-0.474885554,-0.62305831,-52.4220277,44.2377472,-131.1683615,7.789102441265168,0.7946568422276714,148.021310671717,27.46204838709666,31.09920967741938
30800,30800.0,0.7339896994999999,-8.1430092,-2.38835675,0.20829696600000003,-0.5125953685,-0.2562385555,-54.11453245,42.6226807,-130.80139350000002,8.52126275697611,0.6145917581787026,147.83136303258544,27.408516129032144,31.084903225806478
30900,30900.0,2.646355445,-7.98116845,-2.688350675,0.25127411,-0.04360809275,0.0860275265,-53.97659300000001,42.2116086,-130.158083,8.827976878360056,0.2700989895055982,147.09323738046226,27.354983870967626,31.070596774193568
31000,31000.0,5.21192255,-10.28570335,-3.7423393,0.3165237415,-0.305513762,-0.14231491000000002,-53.94958520000001,42.1574401,-130.731663,12.12376369831763,0.4680145350236575,147.5756742563853,27.301451612903108,31.056290322580672
31100,31100.0,1.00812073,-7.373630495,-0.939507295,0.4738647505,-0.04419937125,0.2037956147,-54.5503238,41.3088985,-130.82275199999998,7.5390832618859775,0.5400216607682928,147.63727313762664,27.24791935483859,31.04198387096777
31200,31200.0,4.6314476,-13.99467685,-6.2926954,0.3706420965,-0.06693878189999998,0.44475631600000004,-52.357330499999996,42.1643063,-132.39104899999998,16.07593380005234,0.5903612062535396,148.48074674280952,27.194387096774072,31.027677419354863
31300,31300.0,-1.3361602890000002,-8.4892763,0.14244233050000002,0.56510543,-0.005265046600000004,0.636774443,-51.3652035,41.7349239,-135.09063700000002,8.743183028778889,0.8550129135183014,150.43165055862082,27.140854838709554,31.013370967741967
31400,31400.0,1.061032875,-9.82033455,-0.14414519274999998,0.6035659839999999,-0.05484390214999999,0.094550323,-49.8815922,41.912842299999994,-136.718595,9.906578850088158,0.6204860134827213,151.44912884705457,27.087322580645036,30.99906451612906
31500,31500.0,2.413753465,-9.56654215,-0.040055084500000004,0.406697844,0.2094924895,-0.04611358625,-49.6018984,41.2351993,-138.20998699999998,9.86729924732736,0.4650614532109236,152.52112065819298,27.03379032258052,30.984758064516157
31600,31600.0,1.40005644,-9.4595843,0.6487533400000001,0.24851227,0.328909299,0.167578124,-49.0623479,40.94497670000001,-139.63928399999998,9.585829680760037,0.4454011473517706,153.5667646921099,26.980258064516,30.97045161290325
31700,31700.0,1.99561768,-9.5832399,0.781391892,0.256706237,0.320918274,0.41919098299999996,-47.32971205000001,40.63819925,-141.055914,9.821936218650055,0.5877412199553801,154.23470303218295,26.926725806451483,30.95614516129035
31800,31800.0,2.35606235,-9.7389848,1.04475246,0.144647216,0.297059622,0.30606231500000003,-45.69091815,40.5766281,-142.284391,10.07433736649425,0.4506196384792008,154.85153825839203,26.873193548386965,30.941838709677448
31900,31900.0,2.3604873900000003,-9.4644956,0.7645172,0.012980651880000001,0.589788808,0.208590699,-44.203948,41.03042625000001,-143.064878,9.788103201580073,0.6263871993977957,155.2580654241378,26.81966129032245,30.927532258064545
32000,32000.0,3.047325175,-11.765678375,0.899120325,-0.22521591,0.0774497985,0.039215087875,-42.4312601,41.01951635,-143.07067949999998,12.192938175591404,0.2692382642916417,154.7651602088967,26.76612903225793,30.91322580645164
32100,32100.0,0.800373065,-10.62723925,-1.32149505,-1.333087875,-0.3302726775,-0.76958845,-44.12327842105264,41.22715894736841,-139.18208526315792,10.74319072649956,1.5843013439514235,151.71825407235858,26.71259677419341,30.89891935483874
32200,32200.0,0.211689,-10.58025375,-0.28300857625,-1.560524,-0.07834243500000003,-0.459064485,-46.137541799999994,41.553802399999995,-133.346553,10.611958066625963,1.6315023979624084,147.09441765250003,26.659064516128893,30.884612903225843
32300,32300.0,1.363605525,-8.53261225,-0.3135337875,-0.5788765,0.29183578250000003,-0.6777153,-47.381746,40.6372054,-129.906003,8.647559774104657,0.9421220333426876,144.12490004493273,26.605532258064372,30.87030645161293
32400,32400.0,0.917686475,-8.3781815,-1.572887425,0.3196640025,-0.44372559,-0.37704087,-49.030151,39.5242313,-128.93875200000002,8.576882481069227,0.6662421386917465,143.49680502977768,26.551999999999857,30.856000000000034
32500,32500.0,2.7363739,-8.78520175,-2.525775925,-0.007633209374999998,-0.15423583749999994,-0.2500076325,-49.821472,38.4851074,-128.38119,9.543439217144117,0.3010003859382629,142.98608867263002,26.49846774193534,30.841693548387127
32600,32600.0,2.8590850750000003,-8.448219375,-2.3632774750000003,0.1673393235,-0.2402648925,-0.0217704775,-50.29571540000001,38.19198640000001,-127.928774,9.22792984011599,0.2946457865420985,142.6676663432802,26.44493548387082,30.827387096774224
32700,32700.0,3.784141575,-8.7346155,-2.847801175,0.21980286,-0.08312988075,-0.1392250075,-50.322876,37.512207000000004,-128.32748800000002,9.93790081622233,0.2744574003506321,142.8548564745358,26.391403225806304,30.813080645161318
32800,32800.0,2.2708222,-9.1343354,-2.04914858,0.6258239520000001,0.009335326800000002,0.31106262,-50.40580368421053,37.60633052631579,-129.14798684210527,9.636380975247484,0.7011086386215408,143.646037020342,26.337870967741786,30.79877419354841
32900,32900.0,4.1737396,-11.3130525,-3.94368284,0.223373412,0.08965759400000001,0.097164916,-48.993530299999996,37.980346600000004,-131.074065,12.68781111051478,0.2966906500219172,144.99416927709146,26.28433870967727,30.784467741935515
33000,33000.0,0.576928714,-7.5347658000000015,0.012973022000000056,0.52654417,0.40071107,0.5043029800000001,-48.584443,37.825621000000005,-133.012539,7.575693936838868,0.8327566696668911,146.5727482652189,26.23080645161275,30.77016129032261
33100,33100.0,2.0651642000000003,-10.302228,0.760437012,0.43663635,-0.3281372100000001,0.33876037400000003,-47.1224972,38.365021999999996,-134.74303799999998,10.534994592272769,0.6501976122062556,147.81101759522238,26.177274193548232,30.755854838709713
33200,33200.0,1.56884156,-9.6529144,0.392691044,0.54209292,0.163153074,0.0008636474000000005,-46.460419,38.217925799999996,-136.89712500000002,9.791850423664053,0.5683536363316987,149.53267728867831,26.123741935483714,30.74154838709681
33300,33300.0,1.78144838,-9.229138,0.7412902640000001,0.165847772,0.37279968399999996,0.196655272,-45.97976705,38.0002595,-138.5254625,9.433636102064913,0.4535648163725394,150.82263700683896,26.0702096774192,30.727241935483903
33400,33400.0,1.6263031,-9.4925078,0.28542786800000003,0.303906248,0.33466492,0.262063598,-44.905013700000005,37.736818,-140.305405,9.635334000037824,0.5227681394582043,152.07281915581655,26.016677419354682,30.712935483871004
33500,33500.0,2.65916138,-9.5722352,1.02212216,0.17053527999999998,0.213650516,0.315536502,-43.5605625,37.9045869,-140.70899550000001,9.98724858670186,0.4179053003613043,152.09637075875509,25.96314516129016,30.698629032258097
33600,33600.0,1.66820682,-9.2281802,0.8504608159999999,0.0160675048,0.352130126,0.16427002200000002,-42.386399299999994,38.172455299999996,-141.843179,9.417063817042855,0.3893851673942758,152.88308001851482,25.909612903225646,30.684322580645194
33700,33700.0,2.83477939,-10.041248199999998,1.6216400249999998,0.0032867431239,0.265208431,0.34051666449999995,-40.74050870000001,38.4407039,-142.376781,10.55920585382218,0.4334343040056027,152.99883092045232,25.856080645161125,30.670016129032287
33800,33800.0,2.57663115,-12.30610705,-0.9369323755,-0.324546047,-0.35434417799999995,-0.20526733344999998,-40.1301576,38.45024125,-142.3881485,12.611069783284455,0.5251573669753817,152.85037100592322,25.80254838709661,30.65570967741939
33900,33900.0,-0.9824813595,-10.09698155,-0.10560531650000003,-1.834459665,-0.28244476399999996,-0.7730537375000001,-42.051163,39.482040399999995,-137.18627600000002,10.155998965892113,2.0115059720380795,148.81951116070462,25.749016129032093,30.641403225806485
34000,34000.0,1.382942245,-11.893113099999999,-0.8871299765,-1.267632295,-0.2721130485,-0.7314498920000001,-44.07547125,40.5054474,-132.491229,12.006909733028357,1.4887662836013928,145.386730766141,25.695483870967568,30.627096774193586
34100,34100.0,0.72962189,-7.47233579,-0.2552925071,-0.21274643,-0.3120574935,-0.652192685,-46.1942294,39.96925435,-129.504395,7.5154622614152435,0.7629441635354341,143.18819047743025,25.64195161290305,30.612790322580683
34200,34200.0,0.555736565,-8.003306565,-1.80841752,0.2235832205,-0.729591385,-0.326706695,-47.46925385,39.20280375,-128.818893,8.225577463642614,0.830533714219486,142.7743126036844,25.588419354838532,30.598483870967776
34300,34300.0,2.25119016,-8.2138855,-2.54140317,0.296975705,-0.0846221915,-0.073384095,-47.86941465,39.28474300000001,-128.6249565,8.888382637210475,0.3184475108529978,142.75557344368474,25.534887096774014,30.584177419354873
34400,34400.0,5.1605072000000005,-9.615442,-3.28265086,0.471899412,-0.293519589,0.008320617449999998,-47.40051265,39.4882963,-129.29046499999998,11.396286767519152,0.5573479003043036,143.25557625773902,25.481354838709503,30.56987096774197
34500,34500.0,1.65576015,-6.346757299999999,-1.62082516,0.38464507600000003,0.10765228000000003,-0.10864715400000002,-48.07434,39.0213,-129.73785,6.774580249683988,0.4289167932865791,143.75574333830318,25.427822580644985,30.55556451612907
34600,34600.0,5.8450163,-14.0043733,-5.77836453,0.23903045700000006,-0.431790165,0.339405822,-46.237183,39.778137,-132.04346,16.254574164724094,0.6036325724575625,145.4498284761376,25.374290322580467,30.541258064516164
34700,34700.0,-2.22728433,-7.79549256,0.960472095,0.468801884,-0.02188415399999999,0.6695297269999999,-45.08362,40.914916999999996,-134.01793999999998,8.20218369430663,0.8266226710336981,147.19840850792139,25.320758064515942,30.52695161290326
34800,34800.0,1.4566833899999998,-10.48573605,-0.6939117440000001,0.621450823,0.04214172300000002,-0.028115844999999997,-44.01703,40.914916999999996,-135.32562,10.633625695485831,0.6274450078850511,148.06941882617824,25.26722580645143,30.512645161290358
34900,34900.0,1.98460461,-9.709601199999998,-0.03485412700000001,0.445527645,0.1933074946,0.14382324000000002,-43.34259,40.823364,-137.09717,9.91246351350285,0.5082279257567398,149.46826144099458,25.213693548386914,30.498338709677448
35000,35000.0,0.957791118,-9.52033025,0.77211534,0.2249099725,0.35218887600000004,0.05465774495,-43.05725,40.733337,-138.53912,9.600086202537808,0.4227156429740226,150.68582976209962,25.16016129032239,30.484032258064552
35100,35100.0,2.173497045,-9.6786548,0.7602004725,0.24914627,0.305683137,0.30324249600000003,-41.697693,40.637207000000004,-140.01465,9.949145367827631,0.4976309681611453,151.6383276381852,25.106629032257878,30.46972580645165
35200,35200.0,1.512938655,-9.477297199999999,0.7818763695000001,0.1999847425,0.19628142850000002,0.16299362,-40.72876,40.82489,-141.00494,9.629516876374892,0.3245041235524731,152.3413818995131,25.05309677419336,30.45541935483875
35300,35300.0,1.569618265,-9.22303925,0.750691223,0.18144912600000002,0.407366179,0.2651008595,-39.56604,41.39099,-142.00897,9.385796002081296,0.5188766486649994,153.1183631538771,24.99956451612884,30.441112903225843
35400,35400.0,2.8569923,-9.835346699999999,1.537300915,0.02592849735,0.501007843,0.3361564675,-37.322998,41.380309999999994,-142.71393,10.356822499739794,0.6039189420051656,153.20770885124875,24.94603225806432,30.42680645161294
35500,35500.0,1.9085846000000002,-11.518478,1.0783844,-0.059570312,-0.29512024,0.0040588379999999995,-36.445617999999996,42.036438000000004,-142.27753,11.725226800621149,0.3010997381190246,152.76858556009046,24.892499999999803,30.412500000000037
35600,35600.0,0.81443787,-10.012527,-2.0173035,-1.1333466,-0.15769958,-0.4614563,-37.31537,42.788696,-139.7171,10.246146562534198,1.2338093815794344,150.81172824428248,24.838967741935285,30.398193548387127
35700,35700.0,-0.42337036,-11.757904,0.21887207,-1.8843689,-0.09805298,-0.6329651,-40.116882000000004,44.384766,-132.81097,11.767559386634453,1.990252585977996,145.66442745783056,24.785435483870767,30.38388709677423
35800,35800.0,2.337143,-9.491791000000001,-0.43473816,-0.7637024,0.16827393,-0.7842406999999999,-42.237854,44.09485,-128.43475,9.784954320684903,1.1075156643677302,142.21067862368955,24.73190322580625,30.369580645161328
35900,35900.0,0.7425995,-7.350174000000001,-1.8545074000000001,0.056549072,-0.6328125,-0.66918945,-44.856262,43.34259,-126.10473999999999,7.616804418148796,0.9227480575387921,140.6878452425381,24.67837096774173,30.355274193548425
36000,36000.0,3.3558807,-8.731628,-3.046814,-0.24598694,-0.46662903,-0.17703247,-46.31195,43.060303000000005,-124.620056,9.83800479536438,0.5564105693852386,139.74671647197098,24.62483870967721,30.340967741935522
36100,36100.0,2.104974355,-7.46695407,-1.742031115,0.44127426,-0.14470443700000002,0.17428742,-46.702576,42.874146,-124.92218000000001,7.9513594568310735,0.4967115773739781,140.08880774786218,24.571306451612696,30.326661290322622
36200,36200.0,5.15925674,-10.83559375,-4.8808358,0.53724897,-0.2356185875,-0.1375175485,-45.735170000000004,43.347167999999996,-126.0788,12.956096266755287,0.6051224372049128,140.94873734088262,24.517774193548174,30.312354838709716
36300,36300.0,-1.2013015885,-9.2386526,-1.28330766,0.30721054200000003,0.21546630805,0.4271804815,-46.31591829999999,43.3531938,-126.700059,9.410230238598857,0.5715443852637551,141.69534322892068,24.46424193548366,30.29804838709681
36400,36400.0,2.940720298,-8.245369335,-0.6472945999999999,0.3814514135,1.07831804,0.1065361002,-44.86778305,44.2771146,-128.685152,8.80821648718784,1.1487697973684172,143.29501962437848,24.410709677419142,30.28374193548391
36500,36500.0,2.78743505,-10.4475454,-0.625921628,0.648946382,0.1772743195,0.6189247,-43.4984588,44.508971,-130.653766,10.833276904345748,0.9149276102771996,144.7190060702959,24.357177419354624,30.26943548387101
36600,36600.0,1.01584475,-9.78135765,0.6443229665000001,0.52222138,-0.3102447495,0.242039493,-42.5486006,44.8653411,-132.29339850000002,9.856013374659145,0.6560469770350302,146.03024644610218,24.303645161290106,30.255129032258104
36700,36700.0,1.478709425,-9.357469,-0.065551758,0.363444515,0.280010982,-0.075619507,-42.4748234,44.48524515,-134.21752800000002,9.475435126405822,0.4675714081593569,147.6394436872616,24.250112903225588,30.240822580645197
36800,36800.0,1.864653,-9.6174836,0.543406677,0.24105225,0.295787047,0.181632992,-42.160188500000004,44.51316815000001,-135.479811,9.812170426590338,0.42261799392901744,148.7067538344217,24.19658064516107,30.226516129032298
36900,36900.0,2.10419163,-9.57078855,0.401675412,0.29196473500000003,0.26329193300000003,0.381376647,-40.7943723,44.6142579,-136.65436400000002,9.807750573917387,0.5477456439850931,149.429102441913,24.143048387096552,30.212209677419395
37000,37000.0,2.5104919,-9.5845565,1.08353881,0.16019286800000002,0.19393767899999997,0.340898136,-39.15588375,45.1597594,-137.961354,9.967017508954813,0.4245055909967062,150.35268253987263,24.089516129032035,30.19790322580649
37100,37100.0,2.50269777,-9.4636565,0.958682255,0.028849792200000002,0.474537662,0.208274842,-38.179398,45.1443495,-138.0220725,9.837007677723024,0.5192100340653546,150.15255828327466,24.03598387096752,30.183596774193592
37200,37200.0,2.33714596,-12.153183,0.826879897,-0.10739593800000001,-0.0931442255,0.0911941556,-37.01545779999999,45.4503645,-138.1920595,12.406449340172829,0.17754326518288222,150.10974549148534,23.982451612903,30.16929032258069
37300,37300.0,0.89961165,-10.5941899,-2.23830188,-1.31279453,-0.1549262984,-0.6108093290000001,-38.383178799999996,45.924836,-135.3779615,10.871571310989532,1.4584271872121146,148.01889960644144,23.92891935483848,30.154983870967783
37400,37400.0,0.35690231450000004,-11.389008300000002,0.14268188550000002,-1.688093535,-0.246544649,-0.6021911624999999,-40.7959746,46.5324402,-128.142627,11.404834748184571,1.8092669938339607,142.3029575635842,23.875387096773963,30.140677419354876
37500,37500.0,1.499774205,-8.875756149999997,-0.8308601175,-0.5270637255,0.04096908485,-0.7224067675,-43.0263525,45.75874260000001,-123.6237337,9.040141516404876,0.8983106332269327,138.66500979780182,23.821854838709445,30.126370967741977
37600,37600.0,1.01704785,-7.8576872500000015,-1.162634235,0.2860046405,-0.449108875,-0.52500076,-45.07156425,44.6408079,-122.93090500000001,8.00918444897777,0.7491646750463014,138.33393051197808,23.76832258064493,30.112064516129074
37700,37700.0,2.49683371,-8.442884,-3.338916815,-0.013763428000000001,-0.29725341850000003,-0.227259827,-46.195753499999995,43.98788475,-121.46187075,9.417108671910258,0.3817815426318054,137.1931830566186,23.71479032258041,30.09775806451617
37800,37800.0,3.6642486000000005,-8.4683192,-2.49321446,0.2755165,-0.321862796,0.035102844249999994,-46.2981411,44.0998068,-121.9637322,9.559465967927855,0.42575387158426203,137.7079065579205,23.66125806451589,30.08345161290327
37900,37900.0,3.7645263999999994,-8.863179263157894,-3.5077674789473683,0.3242677426315789,-0.44313692368421054,-0.10673523,-46.40014715,44.19410685,-122.72026399999999,10.251982340236,0.5599591519472972,138.44261265820123,23.607725806451374,30.069145161290365
38000,38000.0,0.2046264644,-9.7752626,-1.00049438,0.725103774,0.312927248,0.5469115999999999,-45.701827200000004,44.6877275,-123.93272649999999,9.843809201389872,0.963145472571501,139.4453778751717,23.554193548386856,30.054838709677462
38100,38100.0,0.6336731,-7.05329592,2.22449342,0.142840574,1.33601382,0.130615234,-44.07730170000001,45.52322390000001,-125.683439,7.534189468111003,1.3514812071504605,140.7533351450284,23.500661290322338,30.040532258064562
38200,38200.0,3.808136,-10.8066836,-0.026293945200000002,0.5942962639999999,0.1282165522,0.57866514,-42.3950198,46.27197279999999,-127.999876,11.462961748696562,0.8445602716698857,142.55673025474022,23.44712903225782,30.026225806451656
38300,38300.0,1.27890318,-10.020905,0.98454284,0.60174868,-0.14661865080000006,0.09396057199999999,-41.5644839,46.3400285,-129.51065400000002,10.15384885847611,0.6355349556582413,143.69423725049666,23.393596774193306,30.011919354838753
38400,38400.0,0.939892574,-9.1736024,0.645754986,0.25510864,0.30036316,-0.0460083006,-41.3977056,45.9773256,-131.404728,9.247356276241348,0.397936894699546,145.2408143436674,23.340064516128784,29.99761290322585
38500,38500.0,1.80204772,-9.6531612,0.9507781940000001,0.235934448,0.33935242,0.28614196399999997,-40.8457948,45.9959414,-132.06024,9.866387579764966,0.5032774832527521,145.6844248868063,23.286532258064266,29.98330645161295
38600,38600.0,1.7107658250000002,-9.4687385,0.13776779,0.248027805,0.34589767250000003,0.2077941925,-39.0451044,46.0008239,-133.341828,9.623141829085373,0.474581244748755,146.35792139277754,23.232999999999752,29.969000000000047
38700,38700.0,2.6181679,-9.534584125,1.0721016,0.1446990975,0.21221542250000006,0.32470322,-37.955933,46.024629,-133.99704,9.946973149197152,0.4160863411177877,146.6770257188545,23.17946774193523,29.95469354838714
38800,38800.0,2.4095726,-9.5199205,1.016441325,0.001953125,0.466274265,0.264511105,-36.5902712,46.2535099,-133.932342,9.876594575380066,0.5367120747669206,146.34246884929442,23.125935483870716,29.940387096774238
38900,38900.0,2.046245575,-12.2020185,0.4098129275,-0.16635895,-0.3635673625,-0.07104110799999999,-35.8695998,46.43234200000001,-132.650298,12.386417144223792,0.4071789721850152,145.04726289272128,23.072403225806195,29.926080645161328
39000,39000.0,0.8548316999999999,-9.75035475,-2.0813599,-1.218307475,-0.2341308675,-0.49688721,-37.193603700000004,46.0173034,-128.9802534,10.00914140635748,1.3383421267444893,141.9045039243683,23.01887096774168,29.911774193548432
39100,39100.0,-0.658596035,-11.50829675,-0.11422348,-1.763996125,-0.17821121399999998,-0.7219200125,-40.083313,44.274292,-120.592806,11.530240582513388,1.914555892892259,134.57175515939767,22.965338709677162,29.89746774193553
39200,39200.0,2.14477236,-8.871807800000003,-0.94099426,-0.602001962,0.252748099,-0.705194075,-42.601471,41.9007871,-115.965119,9.176836832382318,0.9672204274475412,130.45508954106108,22.91180645161264,29.883161290322622
39300,39300.0,1.2763683959999998,-7.52662356,-1.4190002919999998,0.33411682239999996,-0.4488989252,-0.4779968224,-44.70586347826087,40.68716373913043,-115.36374260869566,7.767594838766626,0.7395994962144675,130.24163692919595,22.858274193548127,29.868854838709726
39400,39400.0,2.34798734,-8.8631939,-3.32951815,0.0791336045,-0.46678924299999996,-0.20751190100000003,-45.15281304347826,39.603855913043475,-114.70907434782607,9.757226790841576,0.5219768459078552,129.4813368287229,22.804741935483605,29.85454838709682
39500,39500.0,3.23006441,-8.5063892,-2.77305149,0.201264958,-0.139913939,0.1029739385,-45.843811200000005,39.361266799999996,-115.459443,9.517825850638408,0.27203229858896183,130.31446147770473,22.75120967741909,29.840241935483924
39600,39600.0,4.15662549,-8.39386729,-3.19700016,0.26475830100000003,-0.33587341000000004,-0.24601593,-46.248323,39.2254636,-116.22497549999999,9.900307031902257,0.4970131570720694,131.09459032207303,22.697677419354573,29.82593548387101
39700,39700.0,1.14040987,-9.4627532,-1.82637941,0.7313369820000001,-0.036370849200000006,0.47038116700000004,-46.33514390000001,39.6562196,-117.3010255,9.709376234871833,0.8744311531938942,132.20858532635722,22.644145161290048,29.81162903225811
39800,39800.0,2.26950991,-9.27518,-2.025570699,0.0820678691,0.6729980499999999,0.0801193245,-45.877227500000004,40.960998499999995,-119.49707040000001,9.888365407062288,0.6855091082028621,134.3952145586763,22.59061290322553,29.797322580645215
39900,39900.0,1.8445169631578948,-9.879774315789474,-0.033872111578947366,0.5696499621052632,0.36113779,0.6915218915789474,-45.2854156,42.10090655,-122.26058825,10.067444145119977,0.966163797093896,137.00715274421944,22.537080645161012,29.78301612903231
40000,40000.0,0.7890304440000001,-9.64774795,0.6711143479999999,0.5393516395,-0.0978561371,0.219856263,-44.52140755,42.8354642,-124.3089324,9.7064032623581,0.5949150861473471,138.81561958134054,22.483548387096494,29.7687096774194
40100,40100.0,1.5977164894736842,-9.332486578947368,0.029227809,0.2655101578947369,0.3458324252631579,-0.15192292894736842,-44.98184165,43.21273805,-126.7368335,9.47301849402016,0.4641064458184732,141.25501683983788,22.430016129031983,29.7544032258065
40200,40200.0,2.12226865,-9.369087,0.4966049,0.25576019,0.47506714,0.26771545,-44.4522856,43.7288669,-128.455048,9.61949218939932,0.6023151880169064,142.7898517880653,22.376483870967466,29.740096774193603
40300,40300.0,2.521196775,-9.54063025,0.4438705525,0.25868223900000004,0.17204665749999998,0.35724944799999997,-43.09883005,44.14985685,-130.3944395,9.878558225021044,0.4735041922229979,144.2547951389059,22.322951612902948,29.72579032258069
40400,40400.0,2.17643509,-9.30743585,1.28901823,0.1178573595,0.209497835,0.287312318,-42.065658899999995,44.64805725,-131.73713600000002,9.645305033060351,0.37517409686132175,145.31917693039443,22.269419354838423,29.71148387096779
40500,40500.0,1.83382566,-9.7924961,0.7484733760000001,0.03971099925,0.514906314,0.20986709899999997,-41.4677415,44.9803162,-132.783048,9.992149671307693,0.5578901852974729,146.1989973032619,22.215887096773912,29.69717741935489
40600,40600.0,3.46139835,-11.48758535,1.2055228995,-0.22170563,-0.053203582100000014,0.035536956999999994,-40.707397,44.806976299999995,-133.089602,12.065054572100156,0.24330720911415504,146.21086978419314,22.162354838709394,29.682870967741984
40700,40700.0,0.7010108975,-10.366682800000001,-2.71426466,-1.233599085,-0.14343185809999998,-0.636223604,-42.68463180000001,44.8348985,-130.494536,10.746816002847032,1.3976389339892834,144.43354569731557,22.108822580644876,29.668564516129077
40800,40800.0,0.6980789155,-10.6648224,-0.018574524,-1.563295765,-0.036209107149999996,-0.645970165,-45.5720516,43.9352417,-124.263002,10.689799120231447,1.6920746706700351,139.45775380142524,22.05529032258036,29.654258064516178
40900,40900.0,1.6263015825,-8.749470800000001,-0.3773422225000001,-0.605512235,-0.256768808,-0.7497291690000001,-47.713471500000004,42.1574407,-119.89929,8.913454008842447,0.9998525337699491,135.7561308007071,22.00175806451584,29.639951612903275
41000,41000.0,1.153754425,-7.6025757,-1.55582811,0.07364730825,-0.219810485,-0.504026815,-50.209045700000004,40.634462,-119.08813640000001,7.846369009440564,0.5557877073486279,135.4772865023971,21.94822580645132,29.625645161290368
41100,41100.0,3.143817155,-8.626216825,-2.853791895,0.08765716574999999,-0.541732775,-0.0303504948,-50.8935545,40.4414369,-119.302671,9.617763123213571,0.5498773928038295,135.8632173714486,21.8946935483868,29.61133870967747
41200,41200.0,3.2291075157894737,-8.443503157894737,-2.7283228,0.42423128,-0.024323312842105267,-0.06260440084210528,-51.7707826,41.2300876,-119.908295,9.445217006332893,0.4345326722144069,136.9604614305355,21.841161290322283,29.59703225806457
41300,41300.0,3.837829680000001,-8.887008400000003,-3.69013976,0.10554504199999999,-0.5616455199999999,-0.2714203,-52.73381294736842,41.72291047368421,-120.2656805263158,10.361925911011618,0.6366510689602779,137.78788061710137,21.787629032257765,29.582725806451663
41400,41400.0,1.4857101,-11.511298875,-3.004619625,0.6767997649999999,-0.12467956449999999,0.6727714499999999,-52.59033210000001,43.1314083,-122.765657,12.01951389626347,0.9718025316255274,140.34777250118327,21.734096774193244,29.568419354838763
41500,41500.0,0.34942014749999994,-7.337965414999998,1.278012834,0.1995544425,0.9432006575,0.13530044675,-52.188414,44.26933265,-123.63243259999999,7.530434560941077,0.9788451975092192,141.30954955545366,21.68056451612873,29.554112903225857
41600,41600.0,3.4747467000000003,-10.9827789,0.397476959,0.505239874,0.024089812500000016,0.314373019,-51.40243395,45.64117460000001,-126.52595500000001,11.531289764998267,0.6129517809932427,143.99356143086575,21.62703225806421,29.539806451612954
41700,41700.0,1.8714752000000001,-9.917351,0.63127137,0.62380217,0.154418943,0.12123108,-51.00570685,46.17294225,-127.4428545,10.117839499137034,0.6695628628685526,144.82823885307002,21.57349999999969,29.52550000000005
41800,41800.0,1.210550705,-9.04652295,0.734584804,0.26443862900000004,0.282466123,0.08491134630000001,-51.70127505263158,46.537459473684216,-129.34626263157895,9.157469661984447,0.39946263183503694,146.86463482197198,21.519967741935176,29.51119354838715
41900,41900.0,1.81808472,-9.402959800000001,0.148965454,0.327130128,0.221536256,0.35346679799999997,-50.65155005,47.11616505,-130.14648400000002,9.578642378304316,0.5304868206089312,147.38943301051444,21.466435483870658,29.496887096774245
42000,42000.0,2.46595458,-9.230584599999998,0.7274017340000001,0.27088318,0.1030761716,0.429946902,-49.35796790476191,48.18878185714286,-131.98024238095238,9.58215386397509,0.5185648929356813,148.92000341183368,21.41290322580614,29.482580645161338
42100,42100.0,2.29064253,-9.6168885,0.8637557945000001,0.128453064,0.41376342,0.27958830949999997,-48.05359,48.599548399999996,-132.795104,9.923594301094967,0.5165778962249722,149.3506498025849,21.359370967741626,29.468274193548442
42200,42200.0,2.596800205,-9.822783099999999,1.611936165,-0.04747772175,0.3814331050000001,0.169332122,-47.2998052,49.034118799999995,-133.752744,10.288438929349102,0.4201092728943717,150.10469842256828,21.305838709677104,29.453967741935536
42300,42300.0,1.30763547,-11.7984743,-1.34489744,-0.35943756000000004,-0.434237672,-0.228488162,-48.034364,48.843688,-132.449646,11.957423797100315,0.6160341505748617,149.1172478830959,21.252306451612586,29.439661290322636
42400,42400.0,-0.5205719120000001,-9.492386,-0.8420028589999999,-1.6000473,-0.352638245,-0.737467962,-50.728149200000004,47.113647,-127.38556000000001,9.555622414137225,1.7971818265551778,144.98351078193062,21.198774193548072,29.42535483870973
42500,42500.0,0.768220515,-11.1897489,-0.85420683,-1.34064785,0.19788055,-0.676325985,-53.078613,44.6945192,-121.1035156,11.249182449238528,1.516448970253592,139.57492496200302,21.14524193548355,29.41104838709683
42600,42600.0,1.40969085,-8.301872249999999,-0.9554863375,-0.22761536,-0.382732395,-0.766391755,-55.90118399999999,42.1640012,-118.7921132,8.480822173622776,0.8992578042491134,137.89322594882992,21.091709677419036,29.396741935483927
42700,42700.0,0.397548675,-7.8975486250000015,-1.961639425,-0.049182891500000006,-0.424015045,-0.23056793,-57.26532,40.213318,-116.95190600000001,8.147591223393713,0.4857302818309712,136.28717651309677,21.038177419354515,29.38243548387102
42800,42800.0,3.759597775,-7.859836550000002,-2.277683275,0.1889114375,0.04336929405,0.04241180375,-57.0932,40.2899174,-117.405702,9.005948583696405,0.19982053625886456,136.62738036591827,20.98464516129,29.36812903225812
42900,42900.0,4.6900406000000014,-9.65668475,-3.805782375,0.442703255,-0.59020233,-0.10859299,-56.99798620000001,40.196837200000004,-118.01239199999999,11.390228511003654,0.7469340608545529,137.08209380532776,20.931112903225483,29.353822580645215
43000,43000.0,0.562141425,-6.89198325,-2.430610675,0.35003281,0.1485633885,-0.01005554274999998,-57.5192274,39.2709356,-117.87964,7.3717904907147505,0.4223580242820188,136.91709349712653,20.87758064516096,29.339516129032308
43100,43100.0,5.75534666,-16.4996126,-7.54744274,0.234872438,-0.27573547600000003,0.65003356,-55.67627,41.5277096,-120.9533712,19.099280221383182,0.7664172029319303,139.47811451589942,20.824048387096447,29.32520967741941
43200,43200.0,-2.4850189,-7.588879400000001,0.6826355080000002,0.454956056,0.03979492200000001,0.5249725120000001,-55.5996708,41.712646,-124.3728608,8.094080767083645,0.7556356034808182,142.47801819516675,20.770516129031925,29.310903225806502
43300,43300.0,0.9092498720000002,-9.6251466,-0.12780761599999999,0.49607544,-0.0660858152,0.23222961399999997,-53.6138912,43.304443,-127.276,9.707955869712519,0.5523149824233083,144.73738166307166,20.716983870967407,29.296596774193606
43400,43400.0,2.63737796,-10.1592834,0.407302848,0.478176888,0.14781189,-0.015969848999999994,-53.0014036,43.1591798,-129.52300599999998,10.506182458158317,0.5030032168916383,146.4516254053817,20.663451612902893,29.2822903225807
43500,43500.0,0.8651855740000001,-8.9418394,0.8001892199999999,0.1232330308,0.401568604,0.12720031810000001,-53.1417834,42.8045658,-130.563966,9.02461563625003,0.4422425660574907,147.3202440435081,20.60991935483837,29.267983870967804
43600,43600.0,2.048521455,-9.5262079,0.2669387825,0.322004702,0.28896102500000004,0.35389099049999995,-51.9527425,43.367004,-132.90939500000002,9.747810645952065,0.5596530986086181,149.14670557324203,20.55638709677385,29.25367741935489
43700,43700.0,2.447879775,-9.596289500000001,0.7216583225,0.20227203100000002,0.0039520266500000035,0.29673614449999997,-50.64926225,44.12422225,-134.7202325,9.93114346058823,0.3597412758326388,150.53862050437166,20.502854838709336,29.23937096774199
43800,43800.0,1.966641195,-9.6354323,0.416397853,0.2089866655,0.12065277449999998,0.2453865065,-49.75013725,44.14596575,-135.34545500000002,9.843641512005485,0.3452926219224668,150.80571970978568,20.449322580644818,29.225064516129088
43900,43900.0,2.8604629,-10.096622275,1.520059165,-0.04993057245,0.298764796,0.239159395,-48.68736300000001,44.47708125,-136.9003275,10.603989248602922,0.3866651662690851,151.9555766419798,20.3957903225803,29.21075806451618
44000,44000.0,1.354270945,-12.27379375,-0.8724067964999999,-0.454883573,-0.6129882625,-0.30034255800000004,-48.534775,44.40193225,-136.066055,12.385864537331585,0.8221051477263568,151.13292749231292,20.342258064515786,29.19645161290328
44100,44100.0,-0.3314865135,-9.347648399999999,-0.014315799749999969,-1.94439164,-0.006808471679999999,-0.7397140759999999,-50.60539225,43.637848999999996,-131.9191,9.361222768253107,2.0803627510361427,147.87870025139367,20.288725806451264,29.18214516129038
44200,44200.0,1.4276026631578949,-10.697831526315786,-0.4433754336842105,-1.2315240421052631,-0.10096660115789474,-0.6153604421052632,-52.52227825,42.8680425,-126.42173500000001,10.80259649329584,1.3809499206971576,143.4530332855326,20.235193548386746,29.167838709677483
44300,44300.0,0.9536499140000001,-7.8618166,-0.394645697,-0.04954834,-0.442231739,-0.51568755,-54.50477575,41.5931705,-124.4190225,7.929524873783738,0.6886074901074285,142.05939936833875,20.18166129032223,29.15353225806457
44400,44400.0,0.93533934,-8.799619799999997,-2.93548582,0.35759582700000003,-0.543650814,-0.31637268399999996,-55.5500035,40.62919625,-124.64485249999998,9.328066659683868,0.7235745630981506,142.38288805782508,20.12812903225771,29.139225806451673
44500,44500.0,2.59716031,-7.8729415,-2.38840638,0.066032412,0.186383054,-0.339497373,-56.347275,39.61487,-124.3179325,8.627661771250532,0.3944533334391255,142.124407032908,20.074596774193196,29.12491935483877
44600,44600.0,4.62372877,-8.465393500000001,-3.5261338,0.196844479,-0.541726685,-0.1610580434,-56.88133249999999,39.0491475,-124.2889425,10.270733876833514,0.598865876101116,142.15520870870344,20.021064516128675,29.110612903225864
44700,44700.0,2.20678712,-7.36693113,-2.6935470500000003,0.608039856,-0.44202270200000005,0.0015029912000000256,-57.222747,38.69743325,-124.70932250000001,8.15134608079363,0.7534188385447692,142.56392081964214,19.96753225806416,29.09630645161296
44800,44800.0,2.476319852631579,-15.967030631578947,-4.657983878947368,0.6942981894736842,-0.010466726000000036,0.7384113557894737,-55.713273,40.05279625,-128.01552,16.823363445343524,1.0159351294275525,145.24533848243146,19.91399999999964,29.082000000000054
44900,44900.0,-3.16383364,-6.38249575,3.3282279999999997,0.3427871745,0.58132783,0.2469367994,-54.8469545,40.127945000000004,-130.15632499999998,7.878825981117831,0.7301450760333311,146.83054647583495,19.86046774193512,29.067693548387155
45000,45000.0,3.29854282,-10.7373034,-0.26080093299999985,0.6118110619999999,-0.306462105,0.280707549,-52.72369375,41.66679425,-132.9269425,11.242140255357022,0.7422488464043182,148.94804777960042,19.806935483870607,29.053387096774248
45100,45100.0,2.53897707,-10.19388865,0.15297393775,0.494535829,0.3539451575,-0.027206420999999998,-52.123261,41.29371675,-135.00977,10.510032851549393,0.6089760226527636,150.49799892272904,19.753403225806085,29.039080645161352
45200,45200.0,1.08982847,-9.180296325,0.879012315,0.225021361,0.39442672799999995,0.09332504314999998,-52.060319,40.87677,-137.2352625,9.286793336843985,0.4645542408543761,152.36381859793175,19.699870967741564,29.02477419354845
45300,45300.0,1.99327167,-9.5086668,0.6322341925,0.273281096,0.2926330575,0.37429199399999996,-50.51193125,41.278839000000005,-139.2444625,9.735900406687085,0.5482915920807128,153.76753323189197,19.64633870967705,29.01046774193555
45400,45400.0,1.84292522,-9.63005175,0.6293655404999999,0.2399360645,0.26771545399999996,0.30579299600000004,-48.739624,41.534424,-140.6189,9.825257579411293,0.4720964917419118,154.51321743424785,19.59280645161253,28.996161290322643
45500,45500.0,1.5123444,-9.376862,0.54808044,0.074661255,0.4452362,0.18089294,-47.4580386,41.6937255,-141.857457,9.513838274848164,0.4863453839921365,155.28768799269517,19.53927419354801,28.981854838709737
45600,45600.0,2.7357788,-10.069992,1.6027221999999999,-0.058502197,0.5613556,0.22669983,-45.249634,41.55425990000001,-143.45229799999996,10.557364395196666,0.6082231741944857,156.05403906998663,19.485741935483496,28.967548387096834
45700,45700.0,1.4728393999999998,-12.421097,-1.4498901000000002,-0.42282104,-0.3121643,-0.22071838,-44.515075599999996,41.6999814,-142.99942,12.591865941300336,0.5700357754834305,155.46500357018238,19.432209677418975,28.953241935483927
45800,45800.0,-0.252182,-9.406784,-0.57839966,-1.8843689,-0.14918518,-0.7373656999999999,-45.513915999999995,42.73987,-138.98926,9.427922737828736,2.0289924949972917,152.36872196293947,19.37867741935446,28.93893548387103
45900,45900.0,0.7425995,-10.812195,-0.6993103,-1.3027343999999998,-0.35583496,-0.5818329000000001,-47.16232279999999,43.4138484,-132.943577,10.860204861378596,1.4704641985522706,147.59144332568076,19.325145161289946,28.924629032258125
46000,46000.0,1.2980652,-7.8553467,-0.40242004,-0.073410034,-0.3302765,-0.59994507,-48.8307188,42.5975039,-130.066679,7.972037815342167,0.6887711423698266,145.3147803098561,19.271612903225428,28.910322580645218
46100,46100.0,0.7830673229999999,-8.8290776,-2.255477135,0.2718368545,-0.5585670675,-0.383383178,-50.231477000000005,41.6960143,-130.06866599999998,9.147864298661053,0.7314771594164661,145.53235017402974,19.218080645160907,28.896016129032322
46200,46200.0,2.510543025,-8.085604925,-2.95337907,0.06368560825,0.167570491,-0.1227050795,-50.7916262,40.9022523,-129.74624599999999,8.967651339983547,0.21814525619632452,145.213221362355,19.164548387096392,28.881709677419416
46300,46300.0,4.02343747,-9.145705425,-3.45294116,0.23854598899999999,-0.426409909,-0.035997771899999996,-50.5963132,40.9869387,-129.706569,10.571978717668904,0.4906370550577972,145.13345404557242,19.11101612903187,28.867403225806516
46400,46400.0,1.684788555,-6.36639938,-1.579952205,0.5606300329999999,-0.039717102350000005,-0.069657136,-50.890656,40.4895015,-130.403897,6.774435636677835,0.5685157101508733,145.72051044704938,19.057483870967356,28.85309677419361
46500,46500.0,3.737576335,-14.0982277,-3.78201826,0.9472717075,-0.2011177075,0.4739387545,-49.452819700000006,40.92727670000001,-133.00857499999998,15.075613466947575,1.0815978661624026,147.68884054617502,19.00395161290284,28.83879032258071
46600,46600.0,-2.30173948,-6.27900986,4.07976531,0.0978805548,0.34872436170000004,0.23788452,-48.8130184,41.1260984,-133.686827,7.8550971317337055,0.4732606472064718,148.14292858925643,18.95041935483832,28.824483870967804
46700,46700.0,2.90277096,-11.392299000000001,0.5332260360000001,0.502674842,0.190429692,0.181950382,-46.8006889,41.4103696,-136.59286,11.773122692784693,0.5775923422333537,150.2089748101458,18.8968870967738,28.810177419354897
46800,46800.0,0.894285586,-9.973371499999999,1.18338016,0.58289643,0.1037139894,0.1104843116,-46.4448547,41.092223,-137.96768600000001,10.083254235065958,0.6032332193230158,151.2639646280703,18.84335483870928,28.795870967742
46900,46900.0,0.981913766,-8.8647416,0.8376586699999999,0.173623658,0.604066464,-0.0619842531,-45.9359741,40.8125312,-139.635314,8.958227992996326,0.6318422937453948,152.55757915942218,18.789822580644763,28.781564516129087
47000,47000.0,2.0108153900000003,-9.1890383,0.8758453359999999,0.21622772199999998,0.405830386,0.230001832,-44.86023090000001,40.7373046,-141.196597,9.447389565011404,0.5147917363769499,153.65050542391575,18.736290322580246,28.76725806451619
47100,47100.0,1.9604172,-9.751675599999999,0.617153945,0.23668976100000003,0.15112609500000002,0.319476318,-43.6737052,40.433043,-142.437896,9.966029218216097,0.42544097162196204,154.37231041087446,18.682758064515728,28.75295161290329
47200,47200.0,2.1227352684210525,-9.480377210526315,0.9536984042105264,0.11088160263157897,0.41546471263157897,0.15481808368421052,-42.16781645,40.65971345,-143.40507549999998,9.761888560789496,0.4571775408190023,154.90774087527268,18.62922580645121,28.73864516129039
47300,47300.0,2.47619326,-9.27396675,1.538677215,-0.03569717395,0.5186897265,0.2114685065,-40.79772945000001,40.6493377,-143.868866,9.721430835896452,0.5616794987640339,154.96830165118877,18.57569354838669,28.724338709677482
47400,47400.0,2.727217155,-11.363938225,1.3033881895000001,-0.12055130300000001,0.045124054100000005,0.13141402794999998,-39.14703325,40.98655715,-144.301604,11.76033182758417,0.2011155003846001,155.03349310054148,18.522161290322174,28.71003225806458
47500,47500.0,0.9409049905,-10.56157955,-2.4582612050000003,-0.89782409,-0.346782675,-0.4446258505,-39.6784971,41.43341029999999,-142.7878585,10.885501188071132,1.0638430854559109,153.88213407632526,18.468629032257656,28.69572580645168
47600,47600.0,-1.023891415,-11.124397,-0.3290405235,-1.859062995,-0.14241485180000002,-0.7112144505,-42.1171569,42.3998263,-136.301881,11.182601692592476,1.9965093660548856,148.82887435355764,18.415096774193138,28.681419354838773
47700,47700.0,2.176793575,-9.717080900000001,-0.523509995,-0.9075637809999999,-0.03428955005,-0.66386337,-43.87580845,42.384415399999995,-131.4717875,9.971795974782614,1.1281746110644246,144.93590398916558,18.36156451612862,28.66711290322587
47800,47800.0,0.602605454,-7.2695481,-1.36471253,0.2270492545,-0.532563765,-0.393655396,-45.81466635,41.62071245,-129.705049,7.421985869091997,0.7026696170630424,143.7174554918092,18.308032258064106,28.652806451612967
47900,47900.0,1.7158478,-9.280853599999999,-3.4794434,0.113003539,-0.5576019139999999,-0.0990570072,-46.55845525,41.13113375,-130.52444400000002,10.067153939063317,0.5775387021788772,144.55484883262156,18.254499999999585,28.638500000000068
48000,48000.0,3.1712891,-8.571939,-2.2753997999999998,0.113214112,0.21705321920000006,0.015560913000000001,-46.81861895,40.758514500000004,-130.4050445,9.418814748041328,0.2556481307724152,144.42553587483098,18.200967741935067,28.62419354838716
48100,48100.0,4.5441254,-8.446234279999999,-2.99103392,0.220178222,-0.431903076,-0.239889524,-46.922074,40.46775795,-130.7620265,10.048012024928884,0.5410102544861224,144.69987970632155,18.147435483870552,28.609887096774262
48200,48200.0,-0.0673492416,-9.4058378,-0.99306638,0.67845457,0.145471194,0.44592286,-47.04521155,40.2148437,-131.295166,9.458562913674513,0.8255866680526803,145.15164935077064,18.09390322580603,28.595580645161355
48300,48300.0,3.60104688,-9.59760428,-1.0263458,0.11833801,1.040502928,-0.050488281399999994,-45.88760365,40.65734980000001,-133.2613395,10.397363979867944,1.048549956859614,146.68832157782666,18.040370967741516,28.58127419354845
48400,48400.0,2.088205436842105,-9.888279263157894,0.06778676842105262,0.5679827210526316,-0.05526090947368421,0.59342874,-44.69192525,41.05140720000001,-135.4203775,10.13232796153104,0.8255580212018568,148.3960511020809,17.986838709676995,28.56696774193555
48500,48500.0,0.6734809875,-9.293361625,0.95539093,0.509021755,-0.172351835,0.09539795,-44.1837313,40.34965535,-137.00645550000002,9.367491625228963,0.5458922680556234,149.50276778448483,17.933306451612477,28.552661290322646
48600,48600.0,1.32050325,-9.3954205,-0.4314575175000001,0.3412399275,0.3685455275,-0.0822258,-44.21867460000001,39.888000000000005,-138.437271,9.50531814079287,0.5139925905992148,150.70253788193173,17.879774193547963,28.538354838709747
48700,48700.0,1.753856675,-9.528896000000001,0.53790285,0.224861145,0.3813247675,0.2016639725,-43.545532,39.6388244,-139.7200805,9.703948543935388,0.48766918880178795,151.6217498493209,17.82624193548344,28.52404838709684
48800,48800.0,2.212642675,-9.49628075,0.6315765375,0.30368805,0.0841178875,0.387825015,-42.3430645,39.4124601,-140.556106,9.773662474090802,0.4997790598176421,151.9944241938266,17.772709677418927,28.509741935483934
48900,48900.0,1.7320137,-9.689601875,0.74440002,0.229381565,0.14642715750000002,0.1779632575,-41.56639115,39.3504321,-141.32049650000002,9.871560128279038,0.32656593537180456,152.4719949436121,17.719177419354406,28.495435483871034
49000,49000.0,2.2072601,-9.398407,0.765949255,0.057613372999999996,0.6116866999999999,0.2360153175,-40.317077399999995,38.99353,-142.792668,9.688407855610349,0.6588890537105703,153.41361385755718,17.665645161289888,28.481129032258128
49100,49100.0,2.99843139,-10.0972746,1.92809906,-0.09728088300000001,0.34744109799999995,0.160539245,-38.836976,39.346312,-143.133236,10.708726354926776,0.3965351749791112,153.4391908287613,17.612112903225373,28.466822580645232
49200,49200.0,1.21952821,-11.471073800000001,-0.6740447860000001,-0.217218012,-0.45437774,-0.10768737800000001,-39.047241,39.192504,-142.42126399999998,11.572271990008453,0.5206859604860009,152.789352404191,17.558580645160852,28.452516129032325
49300,49300.0,1.029666169,-9.68834385,-1.05687865,-1.73788601,-0.284896852,-0.6794204709999999,-40.4736328,39.546203399999996,-138.91021999999998,9.81312298888994,1.8885824220206764,149.9945230547956,17.505048387096338,28.438209677419422
49400,49400.0,0.47469941,-11.76986395,-0.369261169,-1.63988039,0.13194579999999997,-0.6373397709999999,-42.728576399999994,40.5920406,-132.550046,11.786126235181612,1.7696539857523264,145.06259672406622,17.451516129031816,28.423903225806516
49500,49500.0,1.4350098,-7.410567569999999,-0.3723770155,-0.27815322890000005,-0.2174095115,-0.725964341,-44.7558596,39.964906,-129.25293,7.56143401932294,0.8234395304120412,142.50151887552244,17.3979838709673,28.409596774193613
49600,49600.0,0.11850051800000001,-7.77741685,-1.033114635,0.5320831125,-0.25974807,-0.2213500955,-46.582946,38.781128,-128.884274,7.8474237175579695,0.6358375554180079,142.42581322371547,17.34445161290278,28.395290322580713
49700,49700.0,3.069472515,-9.54415855,-4.34424062,0.105656437,-0.34817351550000003,0.02621688795,-46.89361655,38.85978705,-129.19486999999998,10.935359947188301,0.3653901291415086,142.83023302274952,17.290919354838262,28.380983870967807
49800,49800.0,3.01685788,-8.5704956,-2.0252075400000003,0.0245849608,-0.19604797,-0.07221374559999999,-47.063369099999996,38.28422525000001,-129.59221200000002,9.312563512581828,0.21961344672072172,143.09018346720967,17.237387096773745,28.36667741935491
49900,49900.0,2.89188234,-7.62766116,-2.98433224,0.45133667200000005,-0.334112552,-0.110354616,-47.485656799999994,38.35197410000001,-129.2616275,8.69343902527452,0.5847881337200364,142.9487585995447,17.183854838709227,28.352370967742004
50000,50000.0,0.487380964,-11.8582154,-3.32861326,0.77773132,0.171249388,0.69285888,-46.905746,38.5151679,-131.6822805,12.403276224649007,1.0735013883324158,144.99600536887692,17.13032258064471,28.3380645161291
50100,50100.0,-0.023062159999999943,-7.36884164,2.162732,0.1051239,0.99960632,-0.007443237999999999,-45.8103939,38.92570445,-132.7377345,7.753345957476376,1.0153976635684976,145.71593709348625,17.07679032258019,28.323758064516202
50200,50200.0,3.11477664,-10.674762,-0.04233092999999999,0.515246584,-0.04649047828,0.387976076,-44.684065999999994,39.623566100000005,-134.6936795,11.125311678749368,0.6588535130168507,147.34010316871326,17.023258064515673,28.30945161290329
50300,50300.0,1.45393064,-10.1978364,0.30506592,0.5925872839999999,-0.28212585999999995,0.262701424,-44.1674804,39.5925904,-135.864258,10.314269566104004,0.7172616440620471,148.24797302558062,16.969725806451155,28.295145161290392
50400,50400.0,1.33738251,-9.0537627,0.4250709644999999,0.2447860705,0.5639564499999999,-0.1163169885,-44.143034,39.05744063157895,-137.90644631578942,9.171151122381653,0.6265811739541182,149.9744536947644,16.916193548386637,28.280838709677486
50500,50500.0,1.974242405,-9.42522635,0.7986312765000001,0.308431244,0.258926392,0.229840089,-43.4597778,38.863220399999996,-139.09149200000002,9.662845670767776,0.4639572866611594,150.81637512592187,16.86266129032212,28.266532258064586
50600,50600.0,1.89541552,-9.5392549,0.560759725,0.2666229285,0.08218993985,0.26509704250000005,-42.511596600000004,38.996582,-140.558166,9.744732215935283,0.3863629040011945,151.9361049136761,16.8091290322576,28.252225806451683
50700,50700.0,1.5598618,-9.66411125,0.536050413,0.1377746558,0.34153366,0.1747650155,-41.559143,39.0325932,-141.352848,9.804181598547055,0.4094256893721562,152.41835963363286,16.755596774193087,28.23791935483878
50800,50800.0,2.38042145,-9.21333775,1.05804287,-0.045770264000000005,0.6644180230000001,0.1830169715,-40.451966,39.1818236,-142.282712,9.577086292355258,0.6908401621929974,153.02280989370172,16.702064516128562,28.22361290322588
50900,50900.0,2.65945743,-10.488431425,1.149559775,-0.0624999986,0.3313133225,0.245763395,-38.794251,39.7018444,-142.090146,10.882079930504961,0.4198244900989431,152.5479277067252,16.648532258064044,28.209306451612967
51000,51000.0,2.438063085,-11.560314199999999,-2.3271224999999998,-1.009831275,-0.4148559585,-0.5464157119999999,-39.22058,40.531311200000005,-140.75653,12.044126913735488,1.2289576031581373,151.6366486732584,16.59499999999953,28.19500000000007
51100,51100.0,-1.733776095,-10.8469619,-0.251052092,-1.884577945,0.063450626,-0.7129180970000001,-42.144165,41.9427484,-134.671326,10.99036243083194,2.0204251746923174,147.21393815327428,16.541467741935012,28.18069354838717
51200,51200.0,1.93067399,-9.44623565,-0.5212898260000001,-0.927437618,-0.331391141,-0.515955352,-44.0856934,42.007141,-129.31976799999998,9.662437146547195,1.1184892633186387,142.94024255295108,16.487935483870494,28.166387096774262
51300,51300.0,0.19894561800000002,-7.47472767,-1.385425555,0.253516388,-0.4798927265,-0.29219589599999995,-45.82221965,41.35780375,-127.9442615,7.606213876470702,0.6222903380932745,142.05595011353608,16.434403225805973,28.152080645161362
51400,51400.0,2.4119644,-8.975235000000003,-2.8139877,0.20462036,-0.5901947,-0.32511139,-46.83677635,41.0525511,-127.1816242,9.710720550416985,0.7085299489249831,141.6128582312686,16.380870967741462,28.13777419354846
51500,51500.0,2.8171844,-9.118889,-2.8337326000000003,0.14282989499999998,-0.0352020265,-0.220710755,-47.97584625,40.3727723,-128.26385449999998,9.957707934629717,0.27768444524597075,142.77003836007142,16.32733870967694,28.12346774193556
51600,51600.0,3.5127029000000003,-7.814643849999999,-2.59730535,0.21420288,-0.291397095,-0.2995453,-48.872376,39.9105843,-127.58811920000001,8.95704104993715,0.4710911681934685,142.338190080152,16.273806451612426,28.109161290322646
51700,51700.0,1.84992215,-8.401825,-2.3333511,0.67759705,-0.09431457300000001,0.27622986,-49.2968748,39.86412035,-128.30078400000002,8.925197693028037,0.7446457220610263,143.10988578235202,16.220274193547905,28.09485483870975
51800,51800.0,4.9282685,-13.4128875,-5.3416595,0.147628782,-0.20616913,0.376365665,-47.7094263,40.4773705,-130.98571950000002,15.280597868686524,0.4550095334380577,145.16162208666876,16.166741935483387,28.080548387096854
51900,51900.0,-0.8303909299999999,-8.96746075,-0.216278085,0.5470962500000001,0.0787887555,0.612854,-46.89476005,40.91865625,-132.336121,9.209572026365306,0.8277430025095041,146.2407869847588,16.11320967741887,28.066241935483948
52000,52000.0,1.17955015,-9.730606,0.71806335,0.40116119,-0.291389465,0.140945435,-45.4576112,41.0572049,-134.3843825,9.833739553796491,0.5181609028658692,147.68637045995987,16.05967741935435,28.05193548387104
52100,52100.0,2.02841412,-10.514763499999999,-1.005398562,0.569255822,-0.16526870800000001,-0.1390144365,-45.6755064,40.565109,-135.378875,10.761659200565177,0.6092666110483982,148.52384585840642,16.006145161289833,28.03762903225814
52200,52200.0,1.540117655,-9.5427789,0.59224701,0.176340484,0.1905853245,0.2205169715,-45.3990937,40.46493579999999,-136.660841,9.693558831718072,0.3407568625782801,149.5819959191526,15.952612903225315,28.02332258064523
52300,52300.0,1.979151155,-9.739830699999999,0.642166138,0.31690139850000004,0.16507339299999998,0.343024451,-44.3316655,40.36087085,-137.96684349999998,9.960235539734544,0.4970474770045648,150.43009973001026,15.8990806451608,28.009016129032325
52400,52400.0,1.39388886,-9.60269485,0.8521407925,0.2882919305,0.022113800000000003,0.2561485295,-44.020006,40.372163,-138.980867,9.741421581864136,0.3929301385450888,151.27281778717256,15.845548387096287,27.99470967741943
52500,52500.0,2.12789378,-9.5101634,0.598416904,0.0626731879,0.509845734,0.18456268399999998,-42.3001092,40.1153564,-139.9121095,9.764627843389162,0.546557048259501,151.5716748552441,15.792016129031769,27.980403225806533
52600,52600.0,2.18247684,-10.1774876,1.5658508,-0.0173828122,0.364700318,0.276550298,-41.089706400000004,40.5405429,-140.3647575,10.526087900312989,0.4584815106658578,151.77023554325316,15.738483870967253,27.966096774193627
52700,52700.0,2.01009524,-11.2809754,-0.2549407919999999,-0.249819942,-0.37799378,-0.03748779479999998,-40.1374825,40.7714845,-140.30303999999998,11.471943219248278,0.4614634166293794,151.51992923781216,15.684951612902735,27.95179032258072
52800,52800.0,1.6835236,-9.625622400000001,-1.373995984,-1.4819122400000002,-0.09953308,-0.6167846800000001,-41.2483215,41.0980225,-137.64571999999998,9.88011894758842,1.6093482557431948,149.45565386796372,15.63141935483822,27.937483870967817
52900,52900.0,-0.5320587139999999,-11.5572662,-0.6753601179999998,-1.66535034,-0.14854125599999998,-0.806396476,-43.800355,41.228485,-131.43158,11.601530292340472,1.8570580769046483,144.54308958822398,15.577887096773706,27.923177419354914
53000,53000.0,2.11879574,-8.254464800000001,-0.601379388,-0.47927855799999997,0.162091066,-0.7066864,-45.8274845,40.6570435,-128.00903,8.544210775789427,0.8756351845999766,141.914122373418,15.524354838709188,27.908870967742015
53100,53100.0,0.2924926768,-7.06574098,-1.005767836,0.338842776,-0.5154144279999999,-0.354299924,-47.381592,39.575195,-127.5375375,7.151397465249312,0.7207830156810139,141.69348412267132,15.470822580644672,27.89456451612911
53200,53200.0,3.98363648,-9.9184356,-4.11271978,0.08041076700000002,-0.353500366,-0.0600708028,-47.676849,39.4851685,-128.165435,11.459062663558207,0.37622731953434224,142.33252379918562,15.417290322580154,27.8802580645162
53300,53300.0,3.27501827,-8.64956535,-1.668175515,0.276683809,-0.23253250233000003,-0.1116828931,-48.309326,38.73291,-128.60717499999998,9.39859468615992,0.4093936444180506,142.7369500656545,15.363758064515642,27.865951612903306
53400,53400.0,3.088150735,-7.99708713,-3.542356855,0.3662170395,-0.274609371,-0.07509689275,-48.554992,38.6398315,-128.757475,9.276823949072117,0.4733263304071439,142.93052110821276,15.310225806451125,27.8516451612904
53500,53500.0,1.2799804675,-11.24093035,-2.562591545,0.670144655,0.0532722467,0.5876091139999999,-47.6371765,38.735960999999996,-130.38253999999998,11.619904076650922,0.8945792984971369,144.11606727917817,15.256693548386608,27.837338709677496
53600,53600.0,-0.677990705,-6.70576775,2.20193331,0.22352905399999998,0.90761642,0.3230026265,-46.1410525,39.7315985,-132.44323500000002,7.183722200448201,0.9970133305172929,145.76999026955087,15.203161290322091,27.823032258064593
53700,53700.0,3.9146851,-10.3599831,0.22575759550000002,0.5657440340000001,-0.07584075715000001,0.29397048649999996,-44.004821,40.058136499999996,-134.19037,11.077809842112384,0.6572232507081429,146.7929707795339,15.149629032257574,27.808725806451694
53800,53800.0,1.576803615,-10.02239665,0.9142112905,0.548807511,0.0534332272,0.03361968975,-44.059753,39.5912175,-135.772705,10.190910878339682,0.5585043454906266,148.13164413772753,15.096096774193061,27.79441935483879
53900,53900.0,0.7536209199999999,-9.001338,0.6432464689999999,0.281001285,0.212266542,-0.009465027119999995,-44.1635125,39.125060999999995,-137.35351500000002,9.060901136815296,0.35692482909486944,149.48983476652768,15.042564516128545,27.780112903225884
54000,54000.0,1.5918289,-9.9513522,0.34840392600000003,0.275669862,0.21258087,0.242994687,-43.3410645,39.266968,-138.41782,10.085591686915846,0.424944490988964,150.26597301579963,14.989032258064027,27.76580645161298
54100,54100.0,1.8881119,-9.4513216,0.473492435,0.137509151,0.287689207,0.166290283,-42.467498,39.0304565,-139.63547,9.651210950779674,0.360322374032465,151.07933095662085,14.935499999999509,27.751500000000075
54200,54200.0,2.14501649,-9.8652875,1.23520969,0.097775268,0.304095451,0.2682495,-41.253662,39.1700745,-140.711975,10.171208188435713,0.4173539585758206,151.77637373227498,14.881967741934993,27.737193548387168
54300,54300.0,2.05463106,-9.4831666,0.883387748,-0.026965332,0.366947931,0.250660704,-39.9879465,39.448547,-141.07513500000002,9.744657302227646,0.4453319685528258,151.84675671678758,14.82843548387048,27.72288709677427
54400,54400.0,2.61690676,-10.8965836,1.3569580600000002,-0.25120087,0.08550109970000003,0.274099734,-38.46708605263158,39.776932368421065,-141.36778157894736,11.289329025876135,0.39101300828848656,151.81178112731646,14.774903225805962,27.708580645161373
54500,54500.0,1.228336325,-10.62483975,-2.5796509,-1.267047875,-0.2644958475,-0.597549425,-38.96583565,40.1347359,-139.23996,11.003369155313836,1.4289543572337315,150.0564849167171,14.721370967741446,27.694274193548466
54600,54600.0,-0.31233978900000003,-10.47640625,-0.05466842675,-1.6103210250000002,-0.1017761245,-0.5453529374999999,-41.20330815,41.01821885,-133.538974,10.49756055582922,1.7040748551941152,145.64691446954296,14.667838709676928,27.679967741935567
54700,54700.0,1.1618881250000002,-9.286479750000002,-0.8582153149999999,-0.57728194,-0.1262741075,-0.4846305875,-42.582245,40.84838875,-129.71290349999998,9.398978369936119,0.7682509276109899,142.50368275239163,14.614306451612412,27.66566129032266
54800,54800.0,1.423461925,-8.88695525,-1.925727925,0.26240921,-0.4623641975,-0.397548675,-44.08531225,40.405655200000005,-129.219435,9.215842205367897,0.6644537595858954,142.3862068205439,14.560774193547898,27.65135483870976
54900,54900.0,1.312133775,-8.336281,-2.323768625,-0.049972534000000006,-0.1891326895,-0.5520172250000001,-45.79338115,39.58175655,-129.02122649999998,8.753350376154653,0.5933216064251575,142.5140399860779,14.507241935483382,27.637048387096854
55000,55000.0,2.887214675,-8.5391885,-1.963142425,0.297031405,-0.384067525,0.03628540025,-46.2731169,39.65156525,-129.15222,9.23189003783584,0.4876802270504968,142.8067720580874,14.453709677418866,27.62274193548395
55100,55100.0,3.48756108,-7.98846134,-2.83971866,0.402328488,-0.18028870000000002,-0.45677795600000004,-46.96662975,39.0996549,-129.77233999999999,9.172612107448881,0.6351421868099669,143.4417549301079,14.40017741935435,27.608435483871048
55200,55200.0,1.94281618,-8.926989899999997,-1.71420898,0.74577026,-0.23205871399999997,0.366674802,-47.092743,38.8393397,-130.7354745,9.302342667713306,0.8658895221567526,144.28447480002637,14.346645161289835,27.594129032258145
55300,55300.0,4.62289126,-11.087765800000001,-4.72156074,0.026715088,-0.0055755599999999786,0.12272949240000006,-45.280304,39.46624715,-132.4710095,12.92278529595749,0.23978354816201525,145.4528129428281,14.293112903225314,27.57982258064524
55400,55400.0,0.19074095999999985,-10.3963164,-0.42014465,0.6603423860000001,-0.07865600639999999,0.7552856400000001,-44.215774200000006,39.76310775,-134.74335050000002,10.475258134048834,1.0089056362608435,147.2825031679565,14.239580645160801,27.56551612903234
55500,55500.0,-0.431027228,-8.9748778,0.96514589,0.5482665800000001,-0.235675052,0.219244384,-42.57507345000001,40.0904854,-136.092298,9.040934072823116,0.6375063907525829,148.12535900264402,14.186048387096285,27.551209677419443
55600,55600.0,2.29213564,-9.7216246,-0.06938476599999999,0.373574828,0.39282838,-0.18705138899999998,-42.11410525,39.5890806,-137.93640399999998,9.989510715765286,0.5792821012021603,149.55724494575597,14.132516129031771,27.536903225806533
55700,55700.0,1.181056757368421,-9.619556210526316,0.7908341263157894,0.20983003263157896,0.4357067,0.2390899626315789,-42.0082853,39.64927645,-139.91058,9.73381989249348,0.5411004769048716,151.3664408012524,14.078983870967253,27.52259677419363
55800,55800.0,2.01368258,-9.91974455,0.256288143,0.247709653,0.3876586875,0.2964736945,-40.41770915,39.56832965,-140.8970635,10.125477632842108,0.5473215774018172,151.8265301428045,14.025451612902735,27.508290322580727
55900,55900.0,1.99177929,-9.54445225,0.853937505,0.1862480175,0.3275772085,0.157083133,-38.80760235,39.5448302,-142.0777135,9.788672602423071,0.4085312691375328,152.4989433172361,13.97191935483822,27.49398387096782
56000,56000.0,1.404240445,-9.42911845,0.567712415,-0.027555083950000003,0.54201811,0.154738613,-37.7371216,39.73014845,-142.576753,9.551728396971631,0.5646238625400124,152.74398755097212,13.918387096773705,27.47967741935492
56100,56100.0,3.20552207,-10.8175823,1.74092869,-0.12022781699999999,0.4500877395,0.2298438995,-35.78926185,40.175093,-142.97988700000002,11.416514952059845,0.5206952573632866,152.7684703241703,13.864854838709187,27.465370967742015
56200,56200.0,1.62205966,-11.41439095,-2.236744685,-0.6752387975,-0.5335746705,-0.334969332,-35.62324475,41.16874735,-141.963273,11.753260260632524,0.92465226125924,152.04434217725785,13.811322580644672,27.45106451612911
56300,56300.0,-0.740003953,-10.7781937,0.44488523,-1.9407134999999998,-0.008670043949999998,-0.6986953779999999,-37.829284799999996,43.460388,-136.78161200000002,10.820164553130354,2.0627326057983746,148.4232031888836,13.757790322580155,27.436758064516212
56400,56400.0,1.5917145,-9.924541,-0.57407988,-1.03481141,0.049708558,-0.6281814600000001,-39.793702,44.299316,-131.031496,10.068731561300524,1.2118186085923697,143.9280019497774,13.70425806451564,27.42245161290331
56500,56500.0,0.711006165,-7.23524476,-0.6680618440000001,0.10789184880000002,-0.7081298970000001,-0.46636810100000003,-42.1267708,44.2108152,-129.333496,7.302457973811506,0.8571978561348284,143.02606370080946,13.650725806451126,27.408145161290413
56600,56600.0,0.8909347400000001,-9.305162300000001,-2.823552,0.197486876,-0.681700137,-0.004684448219999997,-43.218078799999994,44.403991600000005,-128.666686,9.766988124723543,0.7099621547983256,142.8098631948656,13.597193548386608,27.393838709677507
56700,56700.0,3.61014096,-9.626334,-3.21956179,0.26001587000000004,0.128538514,-0.239030456,-43.4945678,44.5211792,-129.10736,10.773566032156324,0.3764282897573588,143.32707547033402,13.543661290322092,27.379532258064604
56800,56800.0,3.14685817,-7.4630569599999985,-2.55037686,-0.045828247,-0.48261109,-0.413212586,-44.9755858,44.4332888,-128.581852,8.492552531600701,0.6370542918277206,143.2851738080088,13.490129032257574,27.365225806451697
56900,56900.0,0.910563659,-8.75904097,-1.79237515,0.697302245,-0.079293823,0.447416683,-45.21453820000001,44.4378658,-129.34051399999998,8.989481384647501,0.8337518966481238,144.04191868910266,13.43659677419306,27.350919354838794
57000,57000.0,4.9323981,-12.5015392,-5.8509697150000015,0.011595153850000041,-0.06550064059999999,0.04453582750000007,-43.010558,45.5541994,-132.080382,14.662480506918385,0.09675365711980444,146.18599806579002,13.383064516128545,27.336612903225888
57100,57100.0,-0.12319183490000007,-7.92148587,0.2375427245000001,0.5928009000000001,0.2660545325,0.5809005650000001,-42.7682494,45.7501218,-133.877872,7.9411289540411785,0.8737357249256728,147.8023875128525,13.329532258064027,27.322306451612988
57200,57200.0,1.10233231,-9.88994865,0.097483062,0.465349581,-0.201376343,0.2005401625,-40.86639279999999,45.8047486,-135.882264,9.953538031836203,0.5454062466912835,149.10449910884694,13.275999999999511,27.308000000000085
57300,57300.0,2.083594535,-9.733182225,0.62780304,0.47274322,0.2310722345,-0.04281768825,-40.5068968,45.8862304,-137.872922,9.973899271578583,0.528892536067331,150.84894065660458,13.222467741934993,27.293693548387186
57400,57400.0,0.73086931,-9.215018,0.679521175,0.2022834735,0.3338661215,0.1254493738,-41.10137879999999,45.6710814,-139.57214,9.268932685409716,0.41075757332985996,152.49830637139434,13.16893548387048,27.279387096774283
57500,57500.0,1.9432983,-9.761139,0.5648346,0.24829102,0.2833252,0.34387207,-38.9001464,45.623779,-140.59448,9.968715112062391,0.5100682308218826,152.84529278757705,13.115403225805965,27.265080645161376
57600,57600.0,2.0223082999999997,-9.340958,1.0041655999999999,0.23657227,0.008483886999999999,0.21498108,-37.814331,46.000976400000006,-141.656798,9.609972724739457,0.3197737950951392,153.6642123165877,13.061870967741447,27.250774193548473
57700,57700.0,1.3351746000000002,-9.407989500000001,0.6510315,0.08105469,0.29290770000000005,0.24053955,-36.7254644,46.130066,-142.29858000000002,9.524536716218153,0.3875874850978661,154.03146141569627,13.008338709676929,27.236467741935574
57800,57800.0,2.5765686000000003,-10.170547500000001,1.3106232,0.0075531006,0.35469055,0.26504517,-35.24292120000001,46.4624024,-142.35076999999998,10.573385237124413,0.4428446428808924,153.83295078781026,12.954806451612413,27.22216129032267
57900,57900.0,0.83477783,-11.806975999999999,-0.49220276,-0.2619629,-0.3153534,-0.24734497,-35.2041632,46.9140624,-141.852114,11.84667885303671,0.4788025292876708,153.50012807044263,12.9012741935479,27.207854838709764
58000,58000.0,1.4147194049999998,-9.073511300000002,-0.566898328,-1.779055785,0.12512206775,-0.63467105,-36.884155799999995,48.1167604,-137.235106,9.2019654757852,1.8937325074034208,150.03199077734462,12.847741935483382,27.193548387096858
58100,58100.0,1.10663982,-10.50124385,-0.14834212900000002,-1.544597655,-0.2041473365,-0.5587684764999999,-39.89394294736842,48.78580215789474,-129.66107789473685,10.560775962246646,1.6554631252805012,144.16539398576873,12.794209677418866,27.17924193548396
58200,58200.0,1.876976035,-8.46862257,-1.39601825,-0.2538162175,-0.2864913925,-0.6239181675000001,-42.3681644,48.25355565,-125.45463649999999,8.786073630522338,0.7339575109009272,140.93420782939413,12.74067741935435,27.16493548387105
58300,58300.0,0.509057635,-7.665123015,-0.9001228299999999,0.4524566625,-0.303114331,-0.380560303,-44.4517515,47.4405671,-125.134279,7.735285653673028,0.6648215257379111,141.0148487812516,12.687145161289836,27.15062903225815
58400,58400.0,3.68076938,-9.3821368,-3.83007505,0.0915954586,-0.3178100573,-0.22998199800000002,-45.4979709,47.35672105,-126.23314199999999,10.783035649935417,0.4102049869915264,142.2938659078955,12.63361290322532,27.136322580645253
58500,58500.0,3.20193178,-8.473178299999999,-2.37919014,0.31626280500000004,-0.352864076,-0.217520143,-46.43722565,46.7010499,-126.44485800000001,9.366840055857363,0.5223304080469969,142.56831705315392,12.580080645160804,27.122016129032346
58600,58600.0,2.77732541,-8.43653895,-2.86402431,0.261393735,-0.278295894,-0.19621887059999998,-47.241211,46.2371816,-126.54541200000001,9.333006895564369,0.43020980530075853,142.77032464708157,12.526548387096286,27.107709677419443
58700,58700.0,2.03140717,-10.1102051,-1.94332426,0.66812287,0.286621096,0.521142605,-46.627806799999995,46.84600820000001,-127.854312,10.498135879538097,0.8956255095250987,143.92912270549783,12.47301612903177,27.09340322580654
58800,58800.0,2.331222555,-8.745867800000001,-0.14426039000000002,-0.035219574200000006,0.925145735,0.3570381175,-44.161072,47.5015252,-129.69726599999998,9.142853073346522,0.9938648567411816,145.01070656860236,12.419483870967252,27.07909677419364
58900,58900.0,2.49773791,-10.90197375,-0.7331825275,0.65724639,0.4569519085,0.5489990260000001,-42.052307,48.33374,-132.267764,11.212753283147755,0.9714974748158932,146.9671432910801,12.365951612902734,27.064790322580727
59000,59000.0,1.43201446,-10.05035055,1.381614665,0.490370934,-0.04766616845,0.2386314405,-41.1038208,47.994995,-134.011536,10.254234049361019,0.5502178652776004,148.16259964530119,12.312419354838221,27.050483870967827
59100,59100.0,1.79377902,-9.3989518,-0.18162078899999998,0.325576017,0.123738861,-0.10784836125,-40.72448720000001,47.567444,-136.468812,9.574901249180533,0.3731201533909137,150.14958844277618,12.258887096773705,27.03617741935493
59200,59200.0,1.92563704,-9.4562323,0.765293118,0.225978853,0.14653396800000001,0.22243957949999998,-40.316468,47.529602000000004,-136.990964,9.681081892845443,0.3509086551667822,150.5025409081551,12.205354838709187,27.021870967742025
59300,59300.0,1.828861255,-9.6391495,0.686106085,0.225386045,0.004060363825000001,0.328592683,-38.880309600000004,47.734986,-138.283386,9.835229372538992,0.3986380198560349,151.3692562812991,12.151822580644671,27.007564516129122
59400,59400.0,1.55269011,-9.3376006,1.095213276,0.13819580199999998,0.139726252,0.2336166355,-37.690428000000004,47.7853396,-138.54308999999998,9.529116701520916,0.30551107263198984,151.3215293251211,12.098290322580153,26.99325806451622
59500,59500.0,2.38275295,-9.62574155,0.684546662,-0.05221710145,0.53551786,0.17860565150000002,-36.17079873684211,48.09634578947369,-138.85610684210525,9.941369476002283,0.5672195284950038,151.33618407918811,12.04475806451564,26.97895161290332
59600,59600.0,2.927132395,-11.1076879,0.969036096,-0.19016724,0.27352294899999996,0.18664856,-34.7140495,48.6036679,-138.9225755,11.53075731575377,0.3845720701223967,151.21813594314378,11.991225806451125,26.964645161290413
59700,59700.0,2.69842842,-11.114816000000001,-2.07357486,-0.89174802,-0.54161987,-0.519195556,-34.52766395,49.08012395,-136.6506205,11.62578902611974,1.172414276821504,149.24647901723245,11.937693548386607,26.95033870967751
59800,59800.0,-2.11271666,-10.885446,-0.6028106679999999,-1.68473818,0.0259551992,-0.83793336,-37.8730775,50.04020745,-129.73739799999998,11.116938064380115,1.8820420405593783,144.12011872430259,11.884161290322092,26.936032258064607
59900,59900.0,2.52533268,-10.0522672,-0.56642454,-0.7588073719999999,-0.006439209,-0.62487488,-40.419616999999995,49.59365805,-124.74655165,10.380858618398058,0.9898135824254658,140.19663697651265,11.830629032257574,26.9217258064517
60000,60000.0,0.8979889000000001,-7.51130056,-1.23225094,0.20568237,-0.26699218399999997,-0.391580204,-42.851791399999996,49.07295205,-123.736647,7.669431878781912,0.5210238426663913,139.8402847807759,11.77709677419306,26.9074193548388
60100,60100.0,2.4295624,-8.621969400000001,-2.07908334,-0.097280886,-0.543539424,-0.445916744,-43.79142795,48.65775995,-122.8055595,9.196896224749755,0.7129180078739152,139.1635662452377,11.723564516128544,26.893112903225894
60200,60200.0,2.55860288,-8.1345125,-1.97781064,0.21974792399999998,-0.242279052,0.117193604,-44.6051027,48.7794491,-122.440642,8.75673903404558,0.34916384063943745,139.14296282353556,11.670032258064026,26.878806451613
60300,60300.0,4.498635879999998,-9.319158999999999,-3.93601988,0.490753176,-0.311102292,-0.078610228,-43.9045718,49.5095818,-123.61114350000001,11.071784650445117,0.5870541766735178,140.20886471690278,11.616499999999512,26.864500000000092
60400,60400.0,1.8460968,-8.9334565,-2.40899656,0.39061279600000004,-0.2005248988,0.154684448,-43.844605,50.025633500000005,-124.61273119999998,9.450546143832735,0.4786086921614614,141.2560729933187,11.562967741934994,26.850193548387193
60500,60500.0,3.0536079000000003,-13.24829125,-4.0817108,0.3188705475,-0.048774720000000014,0.6834297125,-41.5133669,51.075134000000006,-127.402345,14.212847276084874,0.7656116917165456,143.39961731326926,11.50943548387048,26.835887096774286
60600,60600.0,-1.25296018,-7.921485974999999,0.8700943000000001,0.5617446999999999,0.51208115,0.31671143,-39.8675539,51.6975398,-129.188386,8.14842569150929,0.8307287574409669,144.74732910096955,11.455903225805965,26.821580645161387
60700,60700.0,1.611110675,-10.13582575,0.3915596025,0.374530795,0.0782508865,0.0743675225,-38.4996039,52.033844099999996,-132.06008699999998,10.283410543294897,0.3984363450986929,147.07043392614017,11.402370967741447,26.80727419354848
60800,60800.0,2.12646105,-10.184906,1.07030865,0.455223075,0.2774543775,0.042140961000000005,-37.9144287,52.1980299,-133.69308600000002,10.46134649509593,0.5381639776214402,148.44527997818167,11.348838709676931,26.792967741935573
60900,60900.0,1.461471525,-9.4014055,-0.32490921125,0.18917465,0.14163589499999998,0.137477875,-37.7360525,52.1170042,-134.92461799999998,9.521628748339873,0.2771456946835224,149.4819218027447,11.295306451612413,26.778661290322674
61000,61000.0,1.801746375,-9.59294125,0.583694475,0.23604202,0.232452395,0.279960635,-36.3684092,52.3052985,-136.373904,9.778198038294665,0.4358137170248325,150.52043629864127,11.241774193547899,26.76435483870977
61100,61100.0,1.9644898,-9.684759300000001,0.91606598,0.30006105,-0.056718444900000005,0.296682742,-34.830780000000004,52.3287965,-137.39288100000002,9.925445483155462,0.4266569869823044,151.09059536655198,11.188241935483381,26.75004838709687
61200,61200.0,1.87040253,-9.7465316,0.582435612,0.249896245,0.20129547000000006,0.220410155,-33.7190255,52.5291439,-139.13742299999998,9.941977214418175,0.3913041427351757,152.4976523333684,11.134709677418867,26.735741935483965
61300,61300.0,2.44967652,-9.4655672,0.989570602,-0.0746963506,0.5619873049999999,0.193138124,-32.3487852,53.0339049,-139.732972,9.830534712308182,0.5993335684740246,152.9196990363948,11.08117741935435,26.721435483871065
61400,61400.0,2.47613068,-10.825958199999999,1.27507325,-0.185583495,0.0377777092,0.14978638,-30.8694455,53.990326,-139.544527,11.186344641257179,0.2604147229330153,152.77618319971532,11.027645161289835,26.707129032258162
61500,61500.0,0.5538208,-10.6394499,-1.91903077,-0.80280759,-0.490922526,-0.351104738,-31.9882201,55.154419999999995,-137.638549,10.826035865925725,1.0127811261285755,151.68946047439732,10.97411290322532,26.692822580645256
61600,61600.0,-0.856361375,-10.2968308,-0.153668214,-1.72041777,-0.19392548,-0.794677752,-35.283661200000004,56.411437,-130.327453,10.335750582055619,1.9054342658680508,146.33062397582276,10.920580645160804,26.678516129032353
61700,61700.0,1.46446075,-10.0344924,-0.4874717655,-0.87416915,0.18984374695,-0.7655479355,-39.383696,56.1405943,-123.531035,10.158672332454287,1.1864390644490028,141.2902092855699,10.867048387096288,26.664209677419446
61800,61800.0,1.453689555,-7.67823562,-0.98821948,0.16574401725,-0.526333618,-0.463909907,-43.2220455,55.64804125,-121.6102625,7.877766060584498,0.7263533739587109,140.54903963100978,10.81351612903177,26.64990322580655
61900,61900.0,1.052241529,-8.529793699999999,-3.353510255,0.19098816,-0.7623443565000001,0.020943451825,-44.255829,55.87158175,-122.6604475,9.231907266961398,0.7883476184357201,141.86544930275252,10.759983870967254,26.635596774193644
62000,62000.0,3.594997395,-8.8845576,-2.503514825,0.162971494,0.1837684616,0.07862854,-43.9640045,56.201935,-122.67723125,9.907323883399053,0.2628744907361689,141.9198652354635,10.706451612902738,26.621290322580737
62100,62100.0,3.53323214,-7.628855175,-3.429354105,0.19935073600000003,-0.27195282232999995,-0.283033765,-44.6769725,56.4456935,-123.298645,9.083384510798949,0.4875590353713004,142.77514520969896,10.652919354838222,26.60698387096784
62200,62200.0,-0.04688035499999999,-12.4110916,-2.136118325,0.8030281085,-0.12813720885000002,0.674805448,-44.38171375,56.95495625,-126.46866000000001,12.68595965827584,1.0779659743564065,145.63011953102296,10.599387096773707,26.59267741935493
62300,62300.0,-1.215609736,-7.37052304,1.69753422,0.227838138,0.8881744119999999,0.017053223999999992,-43.8358305,57.434844999999996,-128.64990500000002,7.746546606509281,0.9425321249563584,147.55049928695817,10.54585483870919,26.578370967742032
62400,62400.0,2.91797792,-11.101889,0.23635252,0.5508270399999999,0.4160492,0.36027832000000004,-41.513825,58.0963135,-131.60515,11.498848656708903,0.7883512738208208,149.72877366366288,10.492322580644672,26.564064516129125
62500,62500.0,1.45128784,-10.3383788,1.14974058,0.476477048,-0.1634490972,0.226055912,-41.2822725,57.941055500000004,-134.12018,10.505804544523084,0.5632622411402289,151.8210426490949,10.438790322580155,26.549758064516226
62600,62600.0,1.120175158,-9.431451199999998,0.24856262399999998,0.37335815200000005,0.30718078800000004,-0.0276855468,-41.612244,57.38563550000001,-136.730195,9.503007323457906,0.4905878994780829,154.01246026616002,10.385258064515641,26.535451612903323
62700,62700.0,1.60236204,-9.770709,0.7130310000000001,0.181604002,0.426275636,0.193457032,-40.96145625,57.199478000000006,-138.49868500000002,9.927972858120516,0.5029166495163618,155.34327868611928,10.331725806451123,26.52114516129042
62800,62800.0,1.50731506,-9.7221068,0.5648376559999999,0.26150817600000004,0.27926941,0.340463264,-39.62936325,57.4588775,-140.02036999999999,9.856722052866068,0.5136542522850728,156.45355463732847,10.278193548386607,26.50683870967752
62900,62900.0,2.4594381210526315,-9.512769157894738,0.9051248831578946,0.25087295684210525,0.017672890578947366,0.3258169063157895,-37.85553025,57.643508999999995,-141.1941525,9.87289535758657,0.4165346915835455,157.13572898115916,10.224661290322091,26.49253225806461
63000,63000.0,2.238565855,-9.3480714,0.6338508585,0.013140106399999995,0.567639185,0.26344756950000003,-36.787414500000004,57.336043999999994,-142.6952375,9.643479295814744,0.6280244932098425,158.1225236971988,10.171129032257577,26.47822580645171
63100,63100.0,2.530123155,-11.4645492,1.43554611,0.0163276671,-0.258477786,0.12293472,-36.15837075,57.831192,-143.16368500000004,11.843289992394714,0.2982659117232726,158.58042861474925,10.11759677419306,26.46391935483881
63200,63200.0,-0.2439231905,-10.78932735,-1.95769881,-0.861811815,-0.173416899,-0.3105087335,-38.52233875,58.28971875,-141.94756,10.969199044625704,0.9380473410109884,158.21185255375372,10.064064516128543,26.44961290322591
63300,63300.0,-1.12109455,-11.134741199999999,-0.07351913278000001,-1.931925175,-0.0821220398,-0.674682625,-42.45567325,59.0312965,-133.0741875,11.191537393870846,2.048753936595079,151.64649383014813,10.010532258064027,26.435306451613002
63400,63400.0,1.026441925,-9.8156603,0.1453109655,-1.1070350384999998,0.025469206150000003,-0.521228028,-46.58851675,58.576966000000006,-126.35993975,9.876962454295606,1.2272540067575175,146.8629297864527,9.95699999999951,26.4210000000001
63500,63500.0,0.342178355,-7.061675999999999,-0.908195495,0.38784027,-0.41336823,-0.41672516,-50.37930157894736,57.48419526315789,-124.63210263157896,7.132708384608256,0.7131057311240865,146.20451807962945,9.903467741934996,26.4066935483872
63600,63600.0,2.9632263,-10.074173,-3.8135605000000004,0.35002900000000003,-0.7654342700000001,-0.181297303,-52.3095702,57.196654,-126.546934,11.204895377809887,0.8724973381901431,148.39775774948774,9.84993548387048,26.392387096774286
63700,63700.0,1.2807083000000001,-8.483222999999999,-1.9245377,0.0357742325,0.092102053,-0.42044831,-55.28259321052632,55.642700526315785,-126.3812413157895,8.795548836864361,0.4429542112192328,148.74315554891808,9.796403225805964,26.37808064516139
63800,63800.0,3.8562698,-7.92059325,-2.91693115,0.167335512,-0.623222355,-0.30433655000000004,-57.401428,55.0012206,-124.46106,9.279958420866961,0.7244261128450501,147.68442553748648,9.742870967741448,26.36377419354849
63900,63900.0,1.93073275,-7.57881925,-1.48460385,0.929534915,-0.36276245,0.17183685,-59.087524,54.506530000000005,-126.025696,7.967569279242567,1.0153148668732508,149.4818033050697,9.689338709676932,26.349467741935587
64000,64000.0,3.53604885,-14.892509,-4.9693602499999985,0.30102539,-0.28979492,0.304992675,-57.821654,55.6674208,-128.86535800000001,16.12540044209018,0.6107663115430405,151.81734182087382,9.635806451612417,26.33516129032268
64100,64100.0,-2.725094565,-8.2745084,1.6625137280000002,0.555889875,0.2409736625,0.6742683275,-58.08959960000001,56.2265012,-130.624696,9.041059120324624,0.9107308383229176,153.61861568560536,9.582274193547901,26.320854838709774
64200,64200.0,0.7461959640000001,-8.971339449999997,0.958261118,0.553170013,0.01008300795,0.125128174,-55.907288,57.3818968,-133.619076,9.129318607185523,0.5748548747866009,155.79592600412963,9.528741935483383,26.30654838709688
64300,64300.0,1.639353185,-10.033171699999999,-0.073336029445,0.414739224,0.27831115500000003,-0.0026008605999999976,-55.8447264,57.241517599999995,-136.48803999999998,10.16767734336934,0.5054112258063991,158.1904524436351,9.475209677418867,26.292241935483972
64400,64400.0,1.067259995,-9.49460365,0.80096588,0.2222000135,0.37099227799999995,0.06930542115,-55.9490952,56.98455799999999,-138.010862,9.589595856775103,0.4402450377895421,159.45074445028357,9.421677419354351,26.27793548387107
64500,64500.0,0.962032305,-9.34722975,0.667842115,0.2349227925,0.3073966925,0.2896575965,-55.162048600000006,57.3861696,-139.925538,9.420550749435463,0.4836458211488132,160.98193207380302,9.368145161289837,26.263629032258173
64600,64600.0,1.563456765,-9.4231325,1.310152455,0.199508663,0.4365020715,0.26014557,-53.4960936,57.8192134,-141.803588,9.642616340310207,0.5464344519453759,162.21334788503182,9.31461290322532,26.249322580645266
64700,64700.0,1.732313545,-9.4248727,0.931624599,0.06928405750000001,0.503398137,0.2039566025,-51.8695054,58.25439599999999,-143.745116,9.628171297178062,0.54762607851472,163.5442114092835,9.261080645160805,26.23501612903236
64800,64800.0,2.89164428,-10.8727662,2.13614808,-0.0638336182,0.24007263,0.29188537600000003,-50.0793458,58.9660644,-144.26086,11.453555384513914,0.3950914642538881,163.6952812697276,9.207548387096287,26.220709677419453
64900,64900.0,-0.15880737600000006,-10.9405148,-1.68738404,-0.62415466,-0.32920836800000003,-0.312750244,-50.8187864,59.8532108,-142.823792,11.077776022195186,0.7761391792322655,162.9835984636584,9.154016129031769,26.206403225806557
65000,65000.0,0.5505920360000001,-10.5375764,0.5861419560000001,-1.60910036,-0.024118041599999987,-0.7275634799999999,-54.0765384,60.6329336,-134.57733000000002,10.571551639284197,1.7677860390460258,157.2012409981941,9.100483870967253,26.19209677419365
65100,65100.0,-0.379312134,-10.8095578,-0.8039276,-1.30208434,0.16315612599999998,-0.6858093399999999,-58.4759512,59.61822539999999,-126.2240612,10.846703463787987,1.4817028664958802,151.3493283606028,9.046951612902738,26.17779032258075
65200,65200.0,1.74050906,-8.543445,-0.3210205,-0.31181946000000005,-0.31238098,-0.710305788,-62.32269399999999,57.70660400000001,-121.311954,8.725068921844898,0.8475270674982694,148.09120628460306,8.993419354838222,26.163483870967845
65300,65300.0,0.19050597200000008,-7.98175988,-2.52249144,0.1015014648,-0.597015382,-0.21070252,-64.660341,55.986328,-118.74725320000002,8.385295436455772,0.6472297845136635,146.34345774582226,8.939887096773706,26.149177419354938
65400,65400.0,2.395326225,-8.160316499999999,-2.624063885,0.01425476035,-0.08073501394999999,0.02301177982,-65.02250674999999,55.36979685,-117.18201,8.90129834243166,0.1016903459084543,145.00137712597225,8.88635483870919,26.13487096774204
65500,65500.0,3.78419877,-9.4479143,-3.433126025,0.45820618049999995,-0.5740585205,0.092636111,-64.57992585000001,55.51536555,-117.2711925,10.747326254063106,0.7411723287547685,144.93136295071577,8.832822580644674,26.120564516129136
65600,65600.0,0.34816130450000005,-8.408764699999999,-1.4346229599999998,0.5403327929999999,0.45247802,-0.02337417550000001,-65.058747,55.37544375,-118.314516,8.637111993551759,0.715243942369494,145.93638087074422,8.779290322580158,26.106258064516233
65700,65700.0,3.958559445,-9.98786865,-2.8995788650000005,0.219589237,0.416316984,0.04640579165,-64.07607900000001,56.64688105,-120.0625616,11.235446019203165,0.7302723919301981,147.40979272546826,8.725758064515643,26.091951612903326
65800,65800.0,0.8913513200000001,-9.4948406,1.09114378,0.5073181,-0.10220108185,0.5881881720000001,-63.6419679,57.3359666,-123.513338,9.654270918960847,0.787924043819813,150.3106061381176,8.672225806451126,26.07764516129043
65900,65900.0,-0.038562013000000006,-9.717554375,0.42226410600000003,0.65097046,-0.10848617240000002,0.09076614275,-63.0801379,57.89588935,-125.6081389,9.732628978682357,0.6696855886668299,152.01462633637976,8.618693548386611,26.063338709677524
66000,66000.0,2.05726013,-9.5120224,0.148362733,0.384863285,0.28343048400000004,-0.047290039500000006,-62.45208825,58.012924399999996,-127.27172790000002,9.734010193565503,0.4884785451126873,153.17933749224343,8.565161290322093,26.049032258064624
66100,66100.0,1.14950106,-9.539430300000001,1.1579971000000002,0.199401854,0.1703949,0.146694946,-62.694625650000006,57.3811338,-128.6457845,9.679549716757982,0.3024827864411177,154.1848174186367,8.511629032257577,26.034725806451718
66200,66200.0,1.2646636999999998,-9.8007611,0.27405548399999996,0.278544619,0.283425905,0.206135562,-61.58904995,57.78404265,-130.3233305,9.88834292169625,0.44961833177715577,155.29455500013918,8.458096774193061,26.02041935483881
66300,66300.0,2.00674893,-9.5862395,1.17451932,0.151147463,0.194046019,0.19069061199999998,-60.3571326,57.82554740000001,-131.708759,9.86660345504852,0.3119772647784954,155.99355692079416,8.404564516128545,26.006112903225908
66400,66400.0,1.66389466,-9.4928695,0.903611742,0.0739135745,0.35405273600000003,0.192500307,-59.09088135,57.84934905,-132.38540600000002,9.680367042877258,0.4101961112213352,156.09030957984154,8.351032258064029,25.991806451613012
66500,66500.0,2.834842725,-9.81709675,1.565910375,-0.04039764375,0.4455032275,0.2293586725,-57.62908935,57.5891115,-133.1729165,10.338403442732401,0.5035783451457514,156.11749110722255,8.297499999999513,25.977500000000106
66600,66600.0,1.0984459,-11.8952715,-0.31982805000000003,-0.2129592925,-0.386997225,-0.178638455,-56.15730309999999,56.5353398,-131.44706499999998,11.961075723687305,0.4820178382437215,153.71499862338263,8.243967741934997,25.963193548387203
66700,66700.0,0.3789901775,-9.566608,-1.3056412,-1.852672575,0.11687087972500003,-0.74108886,-56.8888855,54.588089000000004,-124.8737326,9.677237466040069,1.9998718116024825,147.68145880930928,8.19043548387048,25.948887096774303
66800,66800.0,1.04607008325,-11.977267999999999,-0.25218963749999995,-1.6579971000000002,-0.040790558000000005,-0.5163268999999999,-58.2112895,49.968032,-114.586487,12.04399094173376,1.7371013318455222,137.89672475239374,8.136903225805963,25.9345806451614
66900,66900.0,1.493785875,-7.72575775,-0.37848281,-0.14878845125,0.06094741825,-0.674514775,-59.30892945,46.56997685,-110.416946,7.882862834902781,0.7032216421334643,133.7096572994283,8.083370967741448,25.92027419354849
67000,67000.0,0.4550018325,-8.417381625,-1.735992425,0.5034217799999999,-0.6155014025000001,-0.1762390125,-59.0655518,45.680617100000006,-109.9648315,8.607036909695921,0.8147689124761281,132.92004572757833,8.029838709676932,25.90596774193559
67100,67100.0,2.2192345,-8.7962685,-3.2634925999999997,0.0850410475,-0.07807159449999995,-0.32857132,-58.1330868,44.70260655,-109.37202225,9.642741845164425,0.38208045049236894,131.6815932457492,7.976306451612417,25.89166129032269
67200,67200.0,3.4523682,-8.901373199999998,-2.74945986,-0.012271118000000001,-0.361807252,0.030053711,-57.955321,43.8568119,-109.007721,9.93594564012838,0.3637307196992233,131.01499259591492,7.922774193547901,25.877354838709785
67300,67300.0,3.3781432999999996,-7.77657776,-2.58162234,0.36547852,-0.0211334232,-0.108435058,-57.1606448,43.6231994,-108.644259,8.863510155807715,0.3835302001212667,130.2839228695359,7.869241935483384,25.863048387096878
67400,67400.0,0.41675415200000004,-11.6147276,-1.859057668,0.947531132,0.264779664,0.55117492,-55.311279500000005,45.206298700000005,-111.399537,11.786666659132493,1.1294648488707415,132.3363415400126,7.815709677418868,25.84874193548398
67500,67500.0,-0.7743590999999999,-6.52584546,3.25496212,0.128768924,0.90905152,0.186859128,-54.133759600000005,46.491088700000006,-112.48382600000001,7.413842546366439,0.9390879677425248,133.2085864036151,7.762177419354353,25.83443548387108
67600,67600.0,3.65862505,-10.7881898,0.34451522450000005,0.55551606,0.16309967100000006,0.24832000699999998,-52.064515,48.1230153,-115.900877,11.398232441419072,0.6387229635921585,135.86598902991324,7.7086451612898355,25.820129032258173
67700,67700.0,1.2814186475,-10.190897799999998,0.6651496975,0.585292816,0.1037086486,0.093432615,-50.4364779,48.8580315,-117.40188549999999,10.295436015055415,0.6054513427157433,136.7997381736449,7.6551129032253185,25.80582258064527
67800,67800.0,0.8912925745000001,-8.85152095,1.2005591999999998,0.17218093850000002,0.279902649,-0.015431976359999997,-50.596999700000005,48.8243865,-119.0161159,8.979441649047635,0.3297738886326781,138.23426899988615,7.601580645160802,25.791516129032374
67900,67900.0,1.16865542,-9.551036,0.1032333375,0.318925475,0.19330597100000002,0.317994689,-49.38362105,49.29634115,-120.49789325,9.62318954547522,0.4902861251032658,139.24303040878024,7.548048387096287,25.777209677419467
68000,68000.0,2.41280208,-9.7848345,0.64383848,0.20046691600000002,0.157507322,0.350796509,-47.407761,50.5751799,-122.1574425,10.098581730853336,0.4338962210846064,140.4558810572523,7.494516129031771,25.76290322580656
68100,68100.0,1.74877317,-9.836554199999998,0.84651487,0.158706668,0.235487368,0.257904054,-45.697097899999996,50.80215425,-123.19564825,10.027201072788877,0.3838369564339497,140.876751559283,7.440983870967255,25.748596774193654
68200,68200.0,2.2935653200000004,-9.8851581,1.34701846,-0.0316497801,0.631021125,0.281985475,-44.3843075,51.41922025,-124.3892665,10.237244143162245,0.6921984981214897,141.7273461028981,7.387451612902738,25.73429032258075
68300,68300.0,0.8893753000000001,-12.25145725,-0.6633880630000001,-0.369233704,-0.0839782715,-0.1802322424,-43.608932200000005,51.45522955,-123.80027725,12.303702282596676,0.41939305670425103,140.9818892923289,7.333919354838223,25.71998387096785
68400,68400.0,0.572027573,-9.230578900000001,-1.3292221299999998,-1.72862852,-0.026776123,-0.580032344,-44.33898925,49.7113033,-119.3284614,9.345171701478671,1.823554300580981,136.66203803532795,7.280387096773706,25.70567741935495
68500,68500.0,-0.0018173216750000387,-11.445101300000001,-0.5958793705000001,-1.36542437,0.043153380500000005,-0.5633575435,-46.0337833,46.3090518,-112.08633200000001,11.461313692683946,1.4782426832141236,129.71913362503452,7.2268548387091895,25.691370967742053
68600,68600.0,1.38270115,-8.2099948,-0.557631685,-0.2184509305,0.06301956349999999,-0.71376571,-47.9556276,43.7986745,-109.339903,8.344503489591473,0.7507749655661937,127.17432345060364,7.173322580644674,25.677064516129146
68700,68700.0,0.2868682885,-8.238536400000001,-1.732045725,0.3011398305,-0.382147981,-0.353553781,-48.857116999999995,42.912292,-109.069824,8.423631170030975,0.6017291270025293,126.98310593789999,7.119790322580157,25.66275806451624
68800,68800.0,2.21899493,-8.427019099999999,-2.99126514,-0.0644134525,-0.06320724485000001,-0.2638511585,-49.208221,42.0877074,-108.29055600000001,9.213474577325604,0.28370349313710624,126.17325552797185,7.066258064515643,25.648451612903337
68900,68900.0,3.39029007,-8.936512725,-2.536560805,0.11929855375,-0.446443166,-0.062463382300000016,-49.1537478,41.9569402,-109.054721,9.889666966745708,0.4665490153117743,126.76517638910377,7.012725806451126,25.634145161290437
69000,69000.0,2.74338303,-7.027008075,-2.56672596,0.4864280735,-0.14934311099999995,-0.0917678815,-48.3526612,42.0561216,-108.873444,7.968646483414138,0.518468869002396,126.33338906478664,6.959193548386611,25.61983870967753
69100,69100.0,1.8531639,-11.96050915,-2.08872227,1.021518763,-0.0014328002899999994,0.6250495779999999,-47.236023100000004,43.8992313,-111.53228899999999,12.282958141631626,1.1975939243034197,128.83270751105178,6.905661290322094,25.605532258064628
69200,69200.0,-1.38960192,-7.232201299999999,2.0882072715,0.1161491375,0.839283005,-0.06513671865000001,-46.200562,44.332580799999995,-112.530516,7.713961174889325,0.8506834084217015,129.47202715915273,6.852129032257577,25.591225806451725
69300,69300.0,2.895958685,-12.01049155,0.5640586665,0.5979659930000001,0.181160738,0.6224937475,-43.58382461904761,45.72935519047619,-114.97337666666668,12.371273018992346,0.8825283804115789,131.1855232594762,6.7985967741930615,25.576919354838818
69400,69400.0,1.009683217,-10.0355716,1.03757474,0.502623748,-0.18347549,0.1619232165,-42.47100725,46.4299776,-116.502305,10.141359022062376,0.5594938074796656,132.4096925088783,6.7450645161285445,25.562612903225922
69500,69500.0,1.1604003999999999,-9.156601,0.44033813,0.2387085,0.4367218,-0.11631775,-42.388306,46.714782299999996,-118.85597,9.24033379430922,0.5111139770467567,134.55780641228915,6.691532258064028,25.548306451613016
69600,69600.0,1.4836121000000002,-9.295456,0.59117126,0.22166443,0.43244934,0.18515015,-41.92382845,47.3314669,-119.72931000000001,9.431653649803538,0.5200270466415021,135.39942825719078,6.637999999999512,25.534000000000116
69700,69700.0,2.3503112999999995,-9.582764,0.84376526,0.26960754,0.16720581,0.39181520000000003,-40.7657627,47.735063,-121.6795335,9.90279096520706,0.5041479539516626,136.917488614659,6.584467741934997,25.519693548387213
69800,69800.0,2.0366668999999997,-9.740784,1.2699280000000002,0.19503784,0.2130127,0.19900513,-38.9241789,48.0221571,-122.82569879999998,10.032128494063242,0.35073809482215146,137.5041547819803,6.530935483870481,25.505387096774307
69900,69900.0,1.7146453999999998,-9.269119,1.2280273000000002,-0.033996582000000004,0.65190125,0.16703796,-38.0373366,47.8362277,-123.52668795,9.506031082078758,0.6738194768780484,137.81867937158714,6.477403225805965,25.491080645161404
70000,70000.0,3.1308289,-11.516083,2.0408630000000003,-0.13839722,0.051086426,0.14147949,-36.3934313,47.6427465,-123.89900149999998,12.107327494072885,0.20440171113726516,137.64187134357772,6.423870967741449,25.476774193548497
70100,70100.0,0.0573806766,-10.293780075,-2.35183415,-0.8319854799999999,-0.2838294965,-0.317486563,-35.3952009,47.25227315,-122.372433,10.559946933784175,0.9356357230062669,135.86983363129593,6.370338709676932,25.4624677419356
70200,70200.0,-1.004627948,-11.30516,0.036016082250000005,-1.72649157,-0.0110130311,-0.867167658,-36.2008671,45.54069475,-116.60758929999999,11.350101770042176,1.932104603748194,130.31431884339776,6.3168064516124165,25.44816129032269
70300,70300.0,1.62325667,-9.60874675,0.0904266345,-0.89276505,0.12795638445000002,-0.9285224965,-37.91831975,43.07929975,-113.23860149999999,9.746944949646586,1.2958174554253483,126.95128054200123,6.263274193547901,25.433854838709788
70400,70400.0,1.0142837225,-7.525431085,-0.8953842129999999,-0.01338958725,-0.6499542245000001,-0.39291534899999997,-39.21760475,42.4850463,-112.2296905,7.64725994585875,0.7600940248762247,126.24779961915671,6.209741935483384,25.419548387096892
70500,70500.0,2.29057691,-9.409246075,-3.29683537,0.03354339625,-0.7122177049999999,0.039163970849999986,-38.62335275,42.3873141,-112.4039457,10.23230975838928,0.7141192191197879,126.18675008673536,6.156209677418867,25.405241935483986
70600,70600.0,2.398912085,-8.155336,-2.13289647,0.081161499,-0.08574752949999999,-0.032960510750000005,-37.93166985,42.668076,-112.606356,8.764344647777305,0.12432640089685128,126.25202181261288,6.102677419354353,25.39093548387109
70700,70700.0,3.73786929,-9.0886019,-4.15005956,0.307733156,-0.607774351,-0.059538269299999995,-36.77223220000001,43.2231906,-113.29261499999998,10.669371328305658,0.6845001775996908,126.71095913259737,6.049145161289836,25.376629032258183
70800,70800.0,-1.325740015,-8.7461123,-1.68044285,0.596536256,0.611633305,0.555442835,-36.31454485,44.1545869,-115.823895,9.007924160893417,1.0219627663203077,129.16488617408802,5.995612903225321,25.36232258064528
70900,70900.0,3.062350435,-9.6444218,0.7081238000000001,0.249893192,1.27955624,0.1149520878,-33.973694,44.848633,-117.37671,10.173488492236947,1.3093814186001356,130.16491008101386,5.942080645160804,25.348016129032374
71000,71000.0,2.9417999000000004,-10.795793,0.672097802,0.402017209,0.024357605299999998,0.544148277,-33.013915999999995,45.13855,-119.80438000000001,11.211703392538514,0.6819584237743113,132.213829885311,5.888548387096287,25.333709677419467
71100,71100.0,0.99938814,-9.803511300000002,0.658323647,0.54837493,-0.060232544400000004,0.266006471,-31.564331,45.42389,-122.24731399999999,9.878887241593077,0.6154744276728084,134.17914351501972,5.835016129031772,25.31940322580657
71200,71200.0,1.81736448,-9.0829695,0.89140319,0.251919557,0.33722687,-0.041212462000000005,-31.187439,45.526123,-124.33471999999999,9.307950083588542,0.4232853782974164,136.03090393093862,5.7814838709672545,25.305096774193665
71300,71300.0,1.4545023473684209,-9.277252631578948,0.6688585684210526,0.21908409052631575,0.19865256684210528,0.16940146789473687,-31.391907,45.910645,-125.6134,9.414511756384103,0.34162464395893216,137.37527218889386,5.7279516129027375,25.29079032258076
71400,71400.0,2.021052515,-9.788184375,0.49977417399999996,0.2205451975,-0.0461700455,0.21987686,-30.52063,45.817566,-127.07213999999999,10.007275027670072,0.3152408843809739,138.48497020955327,5.674419354838222,25.27648387096786
