Unnamed: 0,st,ax,ay,az,gx,gy,gz,mx,my,mz,AccTotal,GyrTotal,MagTotal,lat,lng
15000,15000.0,4.55986404,-8.1715038,-1.16107941,0.052288056999999985,-0.121318054,-0.149974823,-49.87568105263158,38.21282652631579,-128.3134094736842,9.430646562702801,0.20846692208944415,142.87118203524236,33.19,32.63
15100,15100.0,4.12220925,-8.48765645,-1.92883988,0.165953065,-0.266308589,-0.01853408815,-50.2179723,37.9766078,-128.37326199999998,9.631935980551123,0.3147844709612086,142.98174669261698,33.14189855072463,32.61714492753624
15200,15200.0,3.16362304,-8.594202000000001,-1.5825287000000001,0.187576294,-0.06481018,0.19793395600000002,-50.03730725,38.19236755,-128.19267125,9.294941473433564,0.2825894836052045,142.81400941389356,33.09379710144927,32.60428985507247
15300,15300.0,4.32241518,-10.1327176,-2.76238406,0.0409912102,0.245608512,0.7371765140000001,-48.4841153,39.311369799999994,-128.455506,11.373180280064936,0.7793812527594305,142.81797924345224,33.045695652173904,32.59143478260871
15400,15400.0,4.9137817199999985,-8.398114399999999,0.711605818,0.5621215959999999,0.530029292,-0.0462249758,-46.9609074,39.677581599999996,-129.9771135,9.785059089958773,0.7802712845082516,143.78351165926637,32.99759420289854,32.578579710144936
15500,15500.0,2.73529666,-8.7682618,-0.61957702,0.247015386,-0.40143433,0.0598785402,-47.303771999999995,39.1608431,-131.4463035,9.21705302614058,0.4759521199642056,145.08395512997896,32.949492753623176,32.56572463768118
15600,15600.0,3.75187988,-9.7793334,-0.44503783799999996,0.21122437,0.16805725,0.007043457,-47.26425220000001,39.2071545,-132.3017885,10.485138851761905,0.27076310708193363,145.85913213681815,32.90139130434781,32.55286956521741
15700,15700.0,2.7956328999999998,-8.8522916,0.13124389800000005,0.208877564,0.09391479800000001,0.07223816,-46.96266155,39.035493,-132.5144175,9.284805240389273,0.2430352611925391,145.90872200488963,32.853289855072454,32.54001449275365
15800,15800.0,3.595893865,-9.247219900000001,-0.0140205384,0.203663633,0.200974275,0.18723297100000005,-46.4279941,39.01863075,-133.7746415,9.923277411435254,0.3420559246242338,146.8798230062981,32.805188405797075,32.52715942028989
15900,15900.0,3.72458952,-9.098832000000002,0.9106757995,0.183895873,0.07048187255,0.1184165965,-45.845260700000004,38.75373865,-134.582978,9.87590002265503,0.2326153326558162,147.36429753164302,32.75708695652172,32.514304347826126
16000,16000.0,3.586197705,-9.13343295,0.860403424,0.1971649155,-0.374645239,0.06270065344999999,-45.52841235,38.49372915,-135.136873,9.850108499734272,0.4281781168537501,147.70450528943408,32.708985507246354,32.501449275362354
16100,16100.0,2.673410825,-9.185204425,0.31212768550000003,0.1098587041,-0.2932044955,-0.08590088250000001,-45.96229585,38.46283,-135.03547450000002,9.571944476253623,0.3258441791578333,147.73802105066324,32.66088405797099,32.48859420289859
16200,16200.0,3.83178181,-9.35663115,0.454283144,-0.00560760499,-0.02725601205,-0.07605438275000001,-46.50123565,38.2239531,-134.78233649999999,10.121575765982245,0.08234303914452958,147.61348899756936,32.612782608695625,32.475739130434825
16300,16300.0,3.903968825,-9.09763865,0.38413009950000004,0.0756126395,-0.078765104,-0.0502143859,-46.49177515,38.24218685,-134.8156735,9.90762049486394,0.1204151296590982,147.64559708845994,32.56468115942026,32.46288405797106
16400,16400.0,4.137648,-8.87666894736842,0.1608469142105263,0.051950556526315785,0.0180093868,0.023565192263157897,-46.9610596,38.047104,-134.9237845,9.795106542477486,0.06156356735685456,147.84238010032468,32.516579710144896,32.45002898550729
16500,16500.0,3.82669674,-9.2714007,1.16602328,-0.041885376,0.055029296,0.0503982544,-46.4387516,38.0261229,-135.14694,10.098211628323185,0.08598770814147755,147.87598959071158,32.46847826086953,32.43717391304353
16600,16600.0,2.92241209,-9.3417939,0.259095769,-0.035174560499999986,0.0245666503,-0.033761596700000014,-46.35017405,37.930831299999994,-135.16334550000002,9.792649380339364,0.05934223604802984,147.8387625304897,32.420376811594174,32.424318840579765
16700,16700.0,4.26124434,-9.1143448,0.315245053,-0.0459304811,0.092951967,0.0272842404,-46.49604805,38.2261667,-135.42113999999998,10.067063026299252,0.107409850334998,148.1958619377435,32.3722753623188,32.411463768116
16800,16800.0,3.50156251,-9.2305708,0.040986633,-0.029313659800000006,0.004959106499999999,-0.048782349,-46.3413235,38.21350015,-134.9147045,9.872592618896867,0.057302293376731726,147.68136250349062,32.32417391304344,32.398608695652236
16900,16900.0,3.93707114,-8.707929700000001,0.70070803,0.0569702148,-0.160783385,0.0414443967,-46.4956662,38.2369992,-134.615172,9.58289239462679,0.17594711457837686,147.4625048697288,32.276072463768074,32.385753623188464
17000,17000.0,3.12088466,-9.176824900000002,0.29884337899999996,0.13260955800000002,-0.246868895,0.0703170795,-46.6744994,38.14483679999999,-135.086668,9.697911953596703,0.2889672468382429,147.9254886166646,32.22797101449271,32.3728985507247
17100,17100.0,3.23526385,-9.264633,0.7369194125,0.05867767275000001,-0.20511246,0.05599212725,-46.7309562,38.276672,-134.73724,9.841328155720255,0.2208989168259436,147.65843609123618,32.179869565217345,32.36004347826094
17200,17200.0,2.830345125,-9.2568515,0.554965965,0.047496795999999994,-0.1728820825,-0.022037506,-47.1206672,37.957458,-134.75006000000002,9.696783759303363,0.1806617485926372,147.7117831139329,32.13176811594198,32.347188405797176
17300,17300.0,3.51659395,-8.897422500000003,0.548072815,-0.026538849,-0.02374649025,-0.02337646525,-47.197876,38.3718874,-134.18274,9.582852329850873,0.042949273767554134,147.3263473115023,32.083666666666616,32.33433333333341
17400,17400.0,2.901874525,-9.228725500000001,0.26107788,-0.014827727999999997,0.0020866393999999988,-0.011390685749999999,-47.410888799999995,37.938232,-134.39026,9.6778091518233,0.02214542592097645,147.4715218363191,32.035565217391245,32.32147826086965
17500,17500.0,2.9811897000000003,-9.28917725,0.360130315,-0.06967926099999999,0.22100449,-0.0263061525,-47.5476076,37.901306,-134.38506999999998,9.762618685075854,0.2332458479866457,147.50132702290588,31.98746376811589,32.30862318840588
17600,17600.0,3.53095625,-9.1075135,0.43823624,-0.059562682750000005,0.23964691,-0.002868652275,-47.160034,38.128052399999994,-134.72015,9.777881921297935,0.24699591219680644,147.74077680258574,31.939362318840534,32.29576811594212
17700,17700.0,4.07856591,-9.0002534,0.7024978700000001,-0.045285034,0.114689636,-0.0184219359,-46.9866936,38.1851192,-135.07782,9.906245418081992,0.1247795362017816,148.02674814592717,31.891260869565173,32.28291304347835
17800,17800.0,2.97669682,-9.26241885,0.463801575,0.029922485,0.009121703999999998,-0.031097412,-46.94396879999999,38.0502318,-134.597474,9.740811745097126,0.0494427249533465,147.54000963051638,31.84315942028981,32.27005797101459
17900,17900.0,3.3814972,-9.3048034,0.668029784,-0.052536010999999994,0.22025146399999998,-0.0038330078800000006,-46.6345208,37.99347,-135.14801400000002,9.923603609031916,0.22653806100115625,147.9299560406952,31.795057971014447,32.25720289855082
18000,18000.0,3.90654294,-9.1156586,0.67928162,0.006054687499999999,0.0653656,0.014065552,-46.6717532,37.954712,-134.826964,9.940759606943157,0.06812912393988255,147.6385515588469,31.74695652173909,32.24434782608706
18100,18100.0,3.4305756,-9.0644164,0.440579224,0.0539855948,-0.054797362999999995,0.00789794924,-46.517639,37.956542999999996,-135.27832,9.702032388641266,0.07746885187249221,148.00279865126586,31.698855072463733,32.23149275362329
18200,18200.0,3.48468928,-9.299292,0.42549133,0.0514312748,-0.046694945999999994,0.0243011472,-46.73004,37.7856436,-135.044248,9.939888312648039,0.07368272564843689,147.8121066062144,31.65075362318836,32.21863768115953
18300,18300.0,3.41381224,-9.197540400000001,0.37185974200000005,0.029922485,-0.009844970699999999,-0.005529785079999999,-46.635436999999996,38.06945820000001,-135.213624,9.817717370387474,0.03274288192154071,148.00976395110112,31.602652173913,32.20578260869576
18400,18400.0,3.3856779315789467,-9.240710631578947,0.2987638742105263,0.04662523789473684,0.03332278621052631,0.0004143965578947365,-46.480102,37.956542999999996,-135.59845,9.845995381093816,0.057457132121353276,148.28366240052398,31.554550724637647,32.192927536232
18500,18500.0,3.230543555,-9.0422132,0.619718955,0.108531189,0.019720458475,0.008582306005,-46.51140514285714,37.685722285714284,-135.99635714285714,9.621968738855085,0.11232220890784736,148.58879610054262,31.506449275362282,32.180072463768234
18600,18600.0,3.35564423,-9.16641065,0.96479034,0.07124633849999999,0.058224485199999995,-0.0950149522,-46.5426636,37.771301,-136.4212,9.809379808525042,0.1346216570161821,149.00885952584753,31.45834782608692,32.16721739130447
18700,18700.0,4.11616367,-9.23811805,1.047982778,-0.014720154099999999,0.262545775,-0.0711532612,-46.600038,37.374572,-136.506956,10.168686387422225,0.27257083998442144,149.0052920931154,31.410246376811557,32.154362318840704
18800,18800.0,4.0879020750000015,-8.761253375,1.003875725,-0.07713699425000001,0.3371200575,-0.1477470425,-46.3082876,37.2229008,-137.022092,9.72139277754284,0.3762844144229395,149.34894267585497,31.362144927536203,32.141507246376946
18900,18900.0,4.427284275,-8.680157000000001,0.88386155,0.069599152,0.002086639249999994,0.0285568236,-46.464844,36.997985799999995,-137.26745400000001,9.785014190657904,0.07963546388640574,149.56707041510523,31.314043478260842,32.128652173913174
19000,19000.0,3.93257525,-8.794773249999999,0.936832425,0.02033233625,0.049228667999999996,0.0501251225,-46.2518304,37.092285,-137.499696,9.679583422685571,0.0762297855978127,149.73723773606744,31.26594202898548,32.11579710144941
19100,19100.0,3.9286957,-8.60144825,0.9628715475,0.0980911275,0.1243247965,0.1380119325,-46.1932374,37.1673578,-137.37579,9.505877401908704,0.2102003666821916,149.62414135989303,31.21784057971012,32.102942028985645
19200,19200.0,3.66281124,-8.8032136,1.019729626,0.0514404304,0.275222776,0.214129638,-45.5181882,37.5094604,-138.48816200000002,9.58934101153444,0.3528404686339051,150.52526442133444,31.16973913043476,32.09008695652188
19300,19300.0,4.0360716399999985,-8.398837400000001,1.68244936,-0.155657958,0.42158508200000006,0.339184572,-44.172363399999995,37.9174798,-138.41034000000002,9.474065840860211,0.5633736622505153,150.1545644002237,31.121637681159395,32.077231884058115
19400,19400.0,3.9592163,-10.1020692,1.58117674,0.032894896,0.035751342799999995,0.0029968268000000052,-43.24584960000001,38.9004516,-139.226684,10.971517345871373,0.06263520956249025,150.88909626722602,31.073536231884034,32.06437681159435
19500,19500.0,3.43320614,-9.7142028,0.364202886,-0.265798944,-0.08888549800000001,0.052850342,-43.59821547368421,39.03310642105263,-138.7203,10.311281995799844,0.2869356275051708,150.55807146611133,31.025434782608677,32.051521739130585
19600,19600.0,3.6829315,-9.1166108,0.712554928,-0.368063356,-0.391635134,-0.1180206328,-44.1564938,39.4104,-137.456358,9.8584163178739,0.5511080676293272,149.6572999178258,30.977333333333316,32.03866666666682
19700,19700.0,3.5507629,-9.363699,-0.740240472,-0.911782832,-0.372036752,-0.39562377600000004,-45.561218473684214,39.90679178947369,-135.1716736842105,10.042066556053307,1.0639290318880923,148.12101665389386,30.929231884057952,32.025811594203056
19800,19800.0,2.63354492,-10.564154400000001,0.301708988,-1.23902894,-0.14043884599999998,-0.7409851279999999,-48.1793214,39.7622678,-130.229494,10.89370260104469,1.4505472179499086,144.437463200061,30.88113043478259,32.01295652173929
19900,19900.0,4.55537092,-8.1879056,-0.36364136,-0.356781,0.14248962199999998,-0.7948883000000001,-50.26771555,38.683777,-127.70187250000001,9.381147666107967,0.8888356969332121,142.58724359675847,30.83302898550723,32.00010144927553
20000,20000.0,2.70991824,-7.7792083,-1.8899415000000002,0.24403076399999998,-0.71973572,-0.379220572,-52.8564453,36.92581195,-127.1533185,8.459533948784763,0.8510282221070397,142.56698401699185,30.78492753623187,31.98724637681176
20100,20100.0,5.333182565,-8.3044437,-1.987330615,0.067142487,-0.4244957,-0.175711058,-53.6066432,36.9200895,-125.958101,10.067593557413089,0.4643447892362114,141.78226245042453,30.736826086956512,31.974391304347986
20200,20200.0,4.7715705999999996,-7.230164425,-2.64279786,0.217459104,-0.1743774435,-0.02092437775,-54.0879056,36.2957771,-125.5146805,9.059518254917656,0.28088546028936484,141.41016229575345,30.68872463768115,31.961536231884217
20300,20300.0,5.37527316,-7.36064378,-2.59174115,0.237851719,-0.16643600000000006,-0.14629974699999998,-54.677276799999994,36.3595577,-126.12114109999999,9.475864538363851,0.3269650865150259,142.19062004055775,30.64062318840579,31.94868115942045
20400,20400.0,3.96927178,-8.212444099999999,-2.01138234,0.70427931,-0.08414230275000001,0.2685653655,-54.620361200000005,36.5470885,-126.868055,9.342885124338599,0.7604931520287155,142.87972191420377,30.592521739130426,31.93582608695668
20500,20500.0,6.93628459,-12.34854295,-4.293772005,0.18235931650000006,-0.23370590489999998,0.4125854465,-53.174336,37.660217333333335,-129.34010666666668,14.807983873348107,0.5310151267865127,144.82662220750072,30.544420289855065,31.922971014492923
20600,20600.0,1.068163269,-7.5232094049999985,0.3432548505,0.28414534350000004,0.517511765,0.558738705,-51.7973325,38.2998658,-130.80444599999998,7.61567047031501,0.8160684929008967,145.8075207700401,30.496318840579704,31.910115942029147
20700,20700.0,3.99728785,-9.12229595,0.2958999544,0.4230499235,0.26153640799999994,0.03654556245,-50.2165224,39.0788278,-133.582001,9.983481501901954,0.5106625787873788,147.96293419022638,30.448217391304347,31.89726086956538
20800,20800.0,3.38413389,-9.5047135,1.325119034,0.49575805,0.23229217800000002,0.022694396799999992,-49.9865715,39.0150449,-134.528506,10.177531503738962,0.5495407146786727,148.72381020829673,30.400115942028986,31.884405797101607
20900,20900.0,3.1743912,-8.905445599999998,0.6227737369999999,0.17372589,0.36970521,0.07309112520000001,-49.769591999999996,38.3210756,-136.43203499999998,9.475412543429176,0.4156274136992869,150.19740375183946,30.35201449275362,31.871550724637842
21000,21000.0,3.77019956,-9.0816577,0.55010987,0.17948150899999998,0.35799713200000005,0.223390195,-49.027862299999995,39.042054,-137.523807,9.84897195963626,0.4586229086501289,151.13186804038904,30.30391304347826,31.858695652174074
21100,21100.0,3.89157413,-8.4206143,1.20995027,0.0634750365,0.354371641,0.33769988700000003,-47.3991396,39.4464105,-139.160916,9.35826218116396,0.4936506561943039,152.21235386949903,30.2558115942029,31.845840579710302
21200,21200.0,3.48013305,-8.795669300000002,1.0773101859999998,0.01425628650000001,0.33721465700000003,0.271113588,-46.0095218,39.9336243,-139.82040600000002,9.521101901211068,0.4338669255149731,152.5167412408844,30.20771014492754,31.832985507246537
21300,21300.0,4.521618630000001,-9.4473744,1.70818023,0.0689025876,0.0700531006,0.267602543,-44.8550415,40.469359999999995,-140.55236499999998,10.612105030715234,0.2869071735143032,152.98598961425134,30.159608695652175,31.82013043478277
21400,21400.0,3.62229537,-10.792252699999999,-0.03185348500000007,-0.013170624099999991,-0.6393081620000001,-0.09602966108,-45.3822326,40.6889343,-140.366824,11.385999659428956,0.6472176120712396,153.02938789907512,30.111507246376814,31.807275362319004
21500,21500.0,3.31613011,-9.03910645,-1.218366995,-1.283238275,-0.5945732085000001,-0.6232833849999999,-47.5321961,41.0284425,-136.928407,9.705426416401755,1.545845404105482,150.63960975636363,30.063405797101456,31.794420289855232
21600,21600.0,3.27316441,-11.14073195,-0.30485763149999995,-1.416659565,-0.331439215,-0.803096018,-51.00677440000001,40.6777958,-130.08590700000002,11.61892939120852,1.6629162765602177,145.52971934243385,30.01530434782609,31.781565217391467
21700,21700.0,3.37036593,-8.576607150000001,-0.31629409899999994,-0.289077762,-0.28382644,-0.96181792,-53.722635,38.633728000000005,-127.378846,9.22258482872356,1.0454445322063628,143.54159086157546,29.96720289855073,31.76871014492769
21800,21800.0,2.21618191,-7.545364399999999,-1.92609789,0.1426803592,-0.4552291885,-0.535613225,-55.955963,36.4555355,-125.8053578,8.096645602309879,0.7176918186809107,142.4328723239243,29.91910144927537,31.75585507246393
21900,21900.0,5.68562005,-7.563440685,-2.70881886,-0.0841262795,-0.26667403500000003,0.07767257665,-56.262818,36.4344801,-124.87076,9.843537534711627,0.2904040102081171,141.7242757669595,29.87100000000001,31.743000000000162
22000,22000.0,5.27124,-7.3717194,-2.6015015,0.60409546,-0.1545105,0.34068298,-55.769500300000004,36.6705325,-125.3529345,9.428469022298296,0.7105418441334346,142.0153160796709,29.82289855072465,31.730144927536394
22100,22100.0,4.250107,-6.8785095,-3.129425,0.2855835,-0.09591675,-0.21006775,-55.5017091,36.899261700000004,-126.068572,8.670098228028575,0.36726886335881376,142.60184947894692,29.774797101449288,31.71728985507262
22200,22200.0,7.6570587,-13.356032999999998,-5.761841,0.31646729999999995,-0.40696716,0.7912903,-53.93753,38.32717879999999,-127.79037450000001,16.438156135698907,0.944412071164831,143.90499455470234,29.72669565217393,31.704434782608853
22300,22300.0,-1.17276,-7.851761,0.40681458,0.45281982,0.5240630999999999,0.26611328,-52.81387320000001,38.41903610000001,-130.77651799999998,7.949277635183059,0.74195970238201,146.17782382057752,29.67859420289857,31.69157971014509
22400,22400.0,5.590866,-10.006546,0.28829956,0.47839355,-0.08312988,0.2756958,-51.123047,39.50233475,-132.806395,11.46611800551382,0.558371865129375,147.68736416647675,29.63049275362321,31.678724637681324
22500,22500.0,4.2608795,-9.062027,0.117126465,0.44963074,0.1352539,-0.08648682,-50.59901642857143,38.98882171428571,-134.55876142857144,10.014446867952948,0.4774320787838517,148.95121135708303,29.582391304347855,31.66586956521755
22600,22600.0,3.1918792999999996,-8.713669,1.1107178,0.08531189,0.44949340000000004,0.050933837999999995,-50.2826695,39.06059375,-135.81199999999998,9.346112290068332,0.4603441007250363,149.99666706029262,29.53428985507249,31.653014492753783
22700,22700.0,3.95238874,-9.08447765,0.611587505,0.20780945,0.310051728,0.35175934000000003,-48.781203999999995,39.60189875,-137.26463,9.92588545814802,0.5130270799795906,150.96201690844205,29.48618840579713,31.64015942029001
22800,22800.0,4.436681275,-8.881509800000002,1.2754982,0.11129684320000001,0.175621795,0.322892765,-47.5177775,39.97688325,-137.94975,10.010415484544657,0.3842502591684023,151.282051045249,29.438086956521765,31.627304347826247
22900,22900.0,3.76864242,-9.13391935,0.7185447629999999,0.009410858125,0.347283185,0.25306320050000003,-46.42562825,40.2576445,-138.7867,9.907590282488304,0.430191120228412,151.78203556950174,29.389985507246408,31.614449275362478
23000,23000.0,4.195577875,-9.24734085,1.523168145,-0.091676334,0.4854530275,0.273242964,-44.605255,41.4329525,-139.3463125,10.268268277261676,0.564878216351149,152.06498359834353,29.341884057971047,31.601594202898703
23100,23100.0,4.16721785,-11.40499265,-0.025991821750000005,-0.22345580899999998,-0.377568814,-0.13554915950000002,-44.2142475,41.61911075,-139.04380749999999,12.148939658193305,0.4596858318968187,151.72420634119595,29.293782608695683,31.588739130434934
23200,23200.0,2.500009115,-8.5230966,0.25771638350000003,-1.638869485,-0.34476241700000004,-0.7689010669999999,-46.292114500000004,42.4636845,-134.53445499999998,8.888387138594805,1.8429367398675105,148.4787592284717,29.245681159420318,31.575884057971173
23300,23300.0,3.519701475,-11.288819125,-0.41984099999999996,-1.2133025750000002,-0.5052497925,-0.7533416999999999,-48.96392875,42.144775,-128.266525,11.832410269606738,1.5151749444510374,143.61814741676056,29.197579710144964,31.563028985507398
23400,23400.0,3.39179376,-8.3052242,0.05115509099999999,-0.28017578346,-0.257731625,-0.841235376,-51.670456,40.46669,-125.23612975,8.972154315141593,0.9342522852856936,141.39147251503383,29.149478260869603,31.550173913043636
23500,23500.0,1.41944581,-7.21453548,-1.4800521999999998,0.31275024500000004,-0.40729675200000004,-0.316900637,-54.07371525,39.17427075,-124.2172225,7.50038148599647,0.6039765051500616,141.02675896305078,29.10137681159424,31.537318840579864
23600,23600.0,5.04798433,-7.961537,-2.42767644,0.33788908700000003,-0.287132261,0.087142944,-53.955459499999996,39.411926,-124.54567250000001,9.73457138873112,0.4533555430393433,141.3369535267929,29.053275362318878,31.524463768116092
23700,23700.0,7.2123335599999985,-8.7925615,-3.58288116,0.338095095,-0.22140350399999997,-0.1186584476,-54.00962850000001,39.62860125,-125.30632,11.9253081579392,0.4245915176347181,142.0885455044148,29.005173913043517,31.511608695652328
23800,23800.0,3.06055294,-6.06460111,-1.56996004,0.400199893,-0.38246613,-0.17853546,-55.36956800000001,38.735962,-125.005722,6.97979986879616,0.5888796450210777,142.10152148847843,28.957072463768156,31.49875362318856
23900,23900.0,4.705388131578947,-12.019499210526314,-3.3454678210526314,0.6810110015789475,0.2215929575263158,0.7277085,-54.096223,40.4640185,-126.71852,13.35172115536528,1.0233663516909015,143.60166321489663,28.908971014492803,31.485898550724787
24000,24000.0,0.6190078554999999,-7.384706114999998,0.8673469469999999,0.11545944400000001,0.6130660875,0.182013695,-53.15399,40.6776415,-128.1467475,7.4658922495326205,0.6716457234258801,144.5738911282601,28.860869565217435,31.473043478261022
24100,24100.0,4.491628984999998,-10.3908669,-0.1592926035,0.396098327,0.43154373549999997,0.5329612655,-50.916489473684216,42.142125263157894,-130.79745421052633,11.321511172358337,0.7960395324550793,146.54870728356775,28.812768115942074,31.460188405797247
24200,24200.0,4.45296399,-10.09596075,1.132506546,0.7030044559999999,-0.018796539299999998,0.2220634425,-49.7543336,42.4917612,-132.82806000000002,11.094597481568018,0.7399995522375268,148.06876855575427,28.764666666666713,31.44733333333349
24300,24300.0,2.56866605,-9.522126199999999,-0.1272117625,0.13814849925,0.241507718,-0.2764778155,-50.2819814,41.664428799999996,-133.68622000000002,9.86507820894861,0.4008739641579327,148.78247837361573,28.716565217391352,31.434478260869717
24400,24400.0,4.340552445,-9.128465,1.000341023,0.221554563,0.228939819,0.2637138385,-49.805330052631575,42.02607789473685,-135.25976842105266,10.160390700107463,0.4140146124460561,150.13994952320812,28.668463768115988,31.42162318840595
24500,24500.0,3.4353667800000003,-8.7033782,0.378567514,0.27897644,0.10968322400000001,0.42440796799999997,-48.6804188,42.7069094,-136.023254,9.365434764790256,0.5197781716439891,150.6519433577254,28.620362318840627,31.408768115942177
24600,24600.0,3.4052002,-9.1786258,0.42070007200000004,0.1102416974,0.346588136,0.283364866,-47.3062126,43.21747,-137.51098000000002,9.799155222070887,0.462639152016189,151.70663367819762,28.572260869565266,31.39591304347841
24700,24700.0,4.23023984,-8.8774322,1.61397704,-0.07298584000000001,0.491897588,0.251840212,-45.9423828,43.7591554,-137.661134,9.96542993476168,0.5574358879983555,151.578900356423,28.524159420289912,31.383057971014644
24800,24800.0,4.0959290600000005,-11.2785858,0.78773194,-0.14862366,-0.0852630604,0.0027740479999999994,-45.61554,44.5718382,-137.72034,12.029184673612333,0.1755088047538302,151.77063912779832,28.47605797101455,31.370202898550872
24900,24900.0,3.05396428,-9.4118226,-1.4154143999999997,-1.32467646,-0.27062073200000003,-0.5292175339999999,-47.182310799999996,44.512634000000006,-135.152592,10.005357881861915,1.452085532079603,149.9127872058717,28.42795652173919,31.357347826087107
25000,25000.0,1.97729798,-10.6577636,0.255508424,-1.46890568,-0.521380614,-0.62316896,-49.987182000000004,43.7026972,-127.90405200000001,10.856707130411591,1.6789687901820332,144.11159674489548,28.379855072463823,31.34449275362334
25100,25100.0,3.4071197200000003,-8.908804,-0.939205954,-0.5193389660000001,-0.047125242000000005,-0.7224579000000001,-52.1795646,41.7291258,-124.09332,9.588920779063653,0.8952787011833843,140.93754495512022,28.33175362318847,31.331637681159574
25200,25200.0,2.885421725,-7.7155875,-1.615676875,0.27705765,-0.6237487875000001,-0.4675827025,-54.489746,40.2804562,-123.19274879999999,8.395525658712279,0.8278438869750647,140.59939543008733,28.283652173913108,31.318782608695802
25300,25300.0,3.7057304,-8.393142749999999,-2.756221775,0.1500205975,-0.28953171,-0.237487795,-55.4211428,39.301148,-123.142698,9.584929322765868,0.403767675017196,140.64222610647616,28.235550724637747,31.305927536232034
25400,25400.0,4.554775299999998,-8.001697475,-2.416839625,0.168128965,-0.131874085,-0.04254913325,-55.711974,38.9624012,-123.2546992,9.522179627534042,0.21907089608240066,140.7609079919419,28.187449275362386,31.29307246376827
25500,25500.0,5.472656275,-7.443248775,-2.2441558999999995,0.23897934,-0.2048416175,-0.2268409725,-56.122131599999996,38.549194,-123.61450320000002,9.511378071775306,0.39159737495807456,141.125070635542,28.139347826087022,31.280217391304497
25600,25600.0,2.608882875,-8.14414625,-1.966129275,0.6403121749999999,-0.08686828925000001,0.33748245250000003,-56.12335160000001,38.4185796,-124.0261832,8.780224721439625,0.7344465473111257,141.4508855093631,28.09124637681166,31.267362318840732
25700,25700.0,7.4005776,-11.663028500000001,-4.3762016500000005,0.09755707,-0.092983245,0.134025574,-54.461059,39.70398,-125.63721000000001,14.505267278065245,0.3892204040185386,142.57323330850232,28.0431449275363,31.254507246376964
25800,25800.0,1.075764462,-7.6021592,0.16548462200000005,0.548272722,0.36481323,0.50025483,-53.654785,39.6716312,-128.0206332,7.7187573117360975,0.8306940812313188,144.3677873280144,27.995043478260943,31.24165217391319
25900,25900.0,2.56974032,-9.0117509,0.6170333699999999,0.36846161,0.235810855,0.23352051100000001,-51.7599488,40.31646679999999,-130.707702,9.408950914207706,0.5374193445681223,146.24994542902945,27.94694202898558,31.228797101449427
26000,26000.0,3.88750898,-9.6354369,1.129034401,0.72404632,0.2201477021,0.051353456799999996,-51.01455031578947,40.565490000000004,-132.55511157894736,10.468625574639363,0.7677767324314575,147.71222722022188,27.898840579710217,31.215942028985648
26100,26100.0,2.87679752,-8.7978289,1.14829711,-0.009497070500000001,0.563803085,0.0009674075000000033,-50.7562254,40.0011446,-133.8252225,9.33095996669207,0.5648053960329881,148.61183417861324,27.850739130434857,31.203086956521894
26200,26200.0,3.20504607,-9.13504655,0.341815184,0.17266082900000002,0.35000458,0.24629364,-49.7292325,39.94628975000001,-134.6279915,9.689204402520604,0.4627213966925545,148.9746013092362,27.802637681159496,31.19023188405812
26300,26300.0,3.74087219,-8.934419199999999,1.14027859,0.060914611900000006,0.38878478899999996,0.254074097,-48.59245335,40.5512994,-135.8409915,9.75372130476241,0.4684938795619938,149.8613157883444,27.754536231884128,31.177376811594353
26400,26400.0,3.46074222,-9.2983337,1.19510958,-0.006089782750000001,0.382287597,0.253971862,-47.2475429,40.7518769,-136.8672965,9.99328941945438,0.459297197658197,150.41843236405114,27.70643478260877,31.164521739130578
26500,26500.0,4.04145816,-8.98870745,1.04385529,-0.1188453686,0.50904694,0.281075287,-45.5727386,41.27212505,-138.085628,9.912602099259349,0.5943328314514945,151.15540454228017,27.65833333333341,31.15166666666681
26600,26600.0,4.5690825450000006,-10.73366135,0.90384749,-0.30761643,-0.049676513500000005,-0.029608917699999987,-44.63852045,41.67411835,-138.123245,11.703643246337993,0.3407225108394142,151.02108406229192,27.610231884058052,31.138811594203048
26700,26700.0,2.1864334050000003,-10.2791156,-1.4637153705,-1.46635359,-0.4692421025,-0.90440137,-47.3123929,41.53411745,-133.6775235,10.6269093244496,1.7899187550305682,147.761457315783,27.56213043478269,31.125956521739283
26800,26800.0,2.170395605,-10.52505845,0.17709198310000002,-1.40355916,-0.1951408375,-0.6276970000000001,-49.893493400000004,40.4857632,-127.76275625,10.758255070073659,1.5503246803251085,143.01028020245374,27.514028985507327,31.11310144927551
26900,26900.0,3.0078819,-8.1272082,-0.8145217895,-0.3842559800000001,0.059447478949999986,-0.591054537,-51.50001495,38.96621725,-124.441376,8.705080069338727,0.7120802910831552,140.2009848499197,27.46592753623197,31.10024637681174
27000,27000.0,2.788510845,-8.050060499999999,-2.05621416,0.44345323,-0.332453915,-0.4405891345,-52.9798887,37.8818524,-125.66451699999999,8.769887771296967,0.7088371375670377,141.53966065276038,27.417826086956612,31.087391304347967
27100,27100.0,3.77246708,-7.47323298,-2.5315917999999997,-0.091952516,0.009967040920000001,-0.25735778800000003,-54.170837600000006,36.791152600000004,-124.98969939999999,8.750545261611089,0.2765796682097761,141.10458075510059,27.36972463768125,31.074536231884203
27200,27200.0,5.56356808,-7.23860784,-2.22632444,0.327554324,-0.332406612,0.10568237400000001,-54.1701509,36.93756145,-124.65042109999999,9.398611684781109,0.4847259218971614,140.8421723445975,27.32162318840589,31.061681159420434
27300,27300.0,4.87835384,-7.8625276,-3.34010622,0.44387512,-0.380981444,0.09140624800000001,-53.71360745,36.8704995,-125.23590349999999,9.840642989311915,0.5955019376671009,141.1687544765381,27.27352173913053,31.048826086956662
27400,27400.0,2.75996396,-12.7593934,-2.07836606,0.6739776559999999,0.353204344,0.683270268,-53.03199805,37.4792477,-126.658176,13.284101440517047,1.0415907737501082,142.33570923878526,27.225420289855165,31.035971014492894
27500,27500.0,0.5618439000000001,-6.48203428,2.38418584,0.25127868200000003,0.729449476,0.15724487,-52.061462,37.994385,-127.83966000000001,7.000520381587383,0.8067129397079934,143.16755144243152,27.177318840579805,31.02311594202913
27600,27600.0,5.038522400000001,-9.898559599999999,0.226773074,0.223370364,0.7168762360000001,0.479589844,-50.02639775,38.83644115,-131.5169545,11.11038951047134,0.8950281481181246,145.97152324075398,27.129217391304444,31.010260869565357
27700,27700.0,3.942639155,-9.69619535,1.100296045,0.6494186479999999,-0.0207077027,0.12794800125,-49.2774195,38.93234255,-132.70538,10.52505956322508,0.663639380778484,146.815232422116,27.081115942029086,30.99740579710159
27800,27800.0,2.156268305,-9.21399225,-0.02287902853,0.2804100045,-0.005688477750000004,-0.1632934535,-49.94539105263158,38.26928442105263,-133.23941789473682,9.469532080072554,0.3318361845347628,147.34937307455112,27.033014492753722,30.984550724637824
27900,27900.0,3.602185855,-9.26253655,1.054564685,0.2127220145,0.21018829600000002,0.3109619225,-49.5504763,37.9998783,-134.56528,9.9968690110102,0.4317987004012844,148.34775212415795,26.98491304347836,30.971695652174052
28000,28000.0,3.84268191,-8.779329575,0.326610565,0.07566833434999999,0.365398404,0.352077485,-48.06030300000001,38.7446597,-135.919038,9.597437292284297,0.5141011107794066,149.2814701017662,26.936811594203,30.958840579710287
28100,28100.0,3.4061584500000004,-9.2206495,1.04666902,0.13591003499999998,0.21087646,0.260253905,-46.8638608,39.0332036,-136.456296,9.886016452160868,0.36163647580914016,149.46617891274127,26.88871014492764,30.94598550724652
28200,28200.0,3.736557,-9.0883635,1.4429092,-0.12187958,0.473999025,0.16544342,-45.8918766,39.219512200000004,-137.127685,9.93497781376772,0.5166686029589922,149.82737366880303,26.84060869565228,30.933130434782747
28300,28300.0,3.402565,-10.859474,0.91498565,0.0229873657,-0.254112245,0.0924758925,-45.35278365,39.319305799999995,-136.8280745,11.4379143074157,0.2736420233490165,149.41499453141302,26.79250724637692,30.920275362318982
28400,28400.0,3.4869930421052633,-9.912595842105263,-1.9068619789473684,-0.8062655805263158,-0.13734917736842106,-0.2733587963157895,-45.9334561,39.5446012,-135.65124550000002,10.682989233339264,0.8639613630662151,148.57647872666672,26.74440579710156,30.907420289855214
28500,28500.0,1.310990145,-10.855824875,-0.30910949600000004,-1.595361325,-0.74019241,-0.819764712,-48.460388099999996,38.797760499999995,-130.11893899999998,10.9394818623347,1.9422571180977724,144.16932778023292,26.6963043478262,30.894565217391442
28600,28600.0,3.26172032,-9.27510615,-0.2029319839999999,-0.92317583,0.0967330925,-0.695717632,-50.8319865,37.84583955,-125.83168300000001,9.865225869714736,1.163174301611556,140.88960965758776,26.648202898550835,30.881710144927677
28700,28700.0,3.026310745,-7.6128120799999985,-1.520995345,0.1347351085,-0.5062011635,-0.4983726525,-52.659225,36.657715,-124.6496585,8.333544963203709,0.7255855817583069,140.19397202064084,26.600101449275474,30.86885507246391
28800,28800.0,3.287820435,-7.99595328,-2.47052917,0.05298309325,-0.29906005950000003,-0.165959166,-53.46130365000001,35.5951692,-124.30534650000001,8.998861709185757,0.34734549223784633,139.91776258745793,26.552000000000113,30.856000000000137
28900,28900.0,4.360840585,-8.1217034,-2.091112475,0.24078674449999998,-0.082222745325,0.01960601775,-53.5752868,35.2584831,-124.94888610000001,9.454174172857117,0.2656557280168935,140.44822093182717,26.50389855072475,30.843144927536372
29000,29000.0,5.7456482300000005,-8.645857925,-3.320175205,0.34864654450000004,-0.271626283,-0.23216094899999998,-53.7422186,35.00633305,-125.5115514,10.899829268370075,0.5073794983796244,140.94978548124558,26.455797101449388,30.830289855072603
29100,29100.0,2.5390793736842103,-7.579011736842105,-1.2505927052631578,0.40208756526315786,-0.022129259368421056,0.2264211557894737,-54.01490894736842,35.126535473684214,-125.81786894736842,8.097733040917603,0.4665663272517952,141.35641066079978,26.40769565217403,30.81743478260884
29200,29200.0,7.34653308,-13.314841,-5.181488,0.29111633600000003,-0.10549926597999998,0.40097656,-51.9964586,35.907897600000005,-127.28362800000001,16.098173541824213,0.5134429550678358,142.1060896842726,26.359594202898673,30.804579710145067
29300,29300.0,0.4967224200000002,-7.7090606,0.319195557,0.489892576,0.316986084,0.430801408,-51.5951537,36.354065000000006,-130.144195,7.787150363614411,0.7271530236855961,144.64166071827663,26.31149275362331,30.791724637681302
29400,29400.0,3.04391778,-10.0134856,1.55052486,0.481591796,-0.186459348,0.100778196,-50.33981350000001,36.5167234,-132.27494,10.587311244887806,0.5670480827913702,146.1651499157601,26.263391304347948,30.778869565217533
29500,29500.0,2.601709,-9.323239,0.23970642099999995,0.54805908,-0.299380492,-0.021298217919999998,-50.0222774,36.32904129999999,-133.269046,9.690728613069071,0.6281474682222382,146.91043308086304,26.215289855072587,30.76601449275376
29600,29600.0,2.31966856,-8.794595600000001,1.19284058,0.147735594,0.288861078,0.094601438,-50.2609256,35.94863839999999,-134.48165999999998,9.173432307756984,0.3449495283752703,147.99936713031116,26.16718840579723,30.753159420289997
29700,29700.0,3.46672976,-9.2901917,0.24879760999999995,0.1407073984,0.38175049,0.374981688,-49.0869142,36.2956239,-135.49820400000002,9.921366614699648,0.5545377762138675,148.6158523868869,26.119086956521866,30.74030434782623
29800,29800.0,4.18762518,-9.070883199999999,0.77313538,0.128558346,0.20022583,0.311917116,-47.52743368421053,37.138607157894725,-136.70357052631581,10.021049118977283,0.3925384301274941,149.41889666113545,26.070985507246505,30.727449275362453
29900,29900.0,2.87704162,-9.031375,0.424057012,0.057614137,0.303134152,0.179397582,-46.574707000000004,37.2656249,-137.52563199999997,9.488127662457716,0.35986714559383715,149.90412836576868,26.022884057971144,30.71459420289869
30000,30000.0,4.17780456,-9.4884306,1.80144046,-0.07810058480000001,0.403271476,0.281234742,-45.005340999999994,37.628633,-138.2664465,10.53066464796543,0.4995027677005678,150.19656102759572,25.974782608695783,30.701739130434923
30100,30100.0,3.673291055,-10.8090189,-0.2570381275,-0.228833765,-0.48457641799999995,-0.2810127265,-45.2722927,37.812958200000004,-137.9356425,11.427261411408468,0.6119462421951087,150.01881425534177,25.926681159420422,30.688884057971148
30200,30200.0,2.66341783,-9.61017905,-0.8955009359999999,-1.47024534,-0.4142700235,-0.8695632959999999,-47.4811554,37.4504854,-134.384082,10.013592329812637,1.7578893813916017,147.36386873444846,25.878579710145058,30.676028985507386
30300,30300.0,2.5055771150000004,-11.57959085,-0.47915497,-1.41410675,-0.44958266799999996,-0.6541221745,-50.46058675,36.950836200000005,-128.3985855,11.878804516273474,1.6243949253547203,142.82116156572985,25.830478260869697,30.663173913043607
30400,30400.0,2.7787543900000005,-7.568579875,0.19152603,-0.244224551,0.029833985999999982,-0.756643669,-52.4047859,35.447998,-126.64710749999999,8.0713434804042,0.8132067848605146,141.57091994768714,25.78237681159434,30.650318840579853
30500,30500.0,2.09676285,-7.468321925,-2.065074155,0.3760208225,-0.4743484525,-0.1907814005,-53.6832435,34.50515765,-125.9491729,8.029134802882588,0.6366146152039719,141.19382263343496,25.73427536231898,30.637463768116078
30600,30600.0,5.140816455,-7.71385124,-2.2904259,0.076522063,0.026803589999999995,-0.01516952545,-53.8750461,34.38514705,-126.11572450000001,9.550238709282242,0.09320495575451332,141.3861442990596,25.686173913043614,30.62460869565231
30700,30700.0,5.52951435,-7.73713676,-3.13007889,0.4250816375,-0.269614407,0.137799073,-53.697815500000004,34.58091615,-125.80711299999999,10.013793288259883,0.5282451325024703,141.09119919715087,25.638072463768253,30.611753623188537
30800,30800.0,4.15889579,-7.24267418,-3.00611426,0.34704591,-0.183369447,0.0397460938,-53.5030366,34.7617343,-127.355042,8.88004972275127,0.4044039691243964,142.44390954903497,25.589971014492892,30.59889855072477
30900,30900.0,5.8697876,-14.06662605,-4.68182204,0.529528818,-0.17293549199999994,0.6770874029999999,-51.6890718,35.53154005000001,-129.38117649999998,15.999584348279223,0.9326773531646526,143.7837001939529,25.54186956521753,30.586043478261004
31000,31000.0,-0.95919647,-7.03856799,1.64917296,0.3327667200000001,0.21514434400000004,0.1416931174,-51.19674705,35.6306457,-131.13716200000002,7.361377563475845,0.5304716448208874,145.21573991105114,25.493768115942174,30.57318840579724
31100,31100.0,4.05007933,-9.5612198,-0.0021087634999999998,0.299639891,0.5096878010000001,0.28464355399999997,-49.165803,36.486816,-133.61869950000002,10.404366235382613,0.6683019736814223,146.97797462116586,25.44566666666681,30.560333333333467
31200,31200.0,4.21108264,-10.1529433,0.15937500769999996,0.60377959,0.0206253052,0.17908172600000002,-48.68026715,36.31149285,-135.2068355,10.996060774122276,0.6395768073223314,148.22007477254405,25.39756521739145,30.5474782608697
31300,31300.0,2.42956238,-8.885328399999997,0.19744873068,0.351303111,0.11532898199999997,-0.037487792400000004,-48.8739,35.93307525,-136.17378200000002,9.219147384153,0.3919970697641317,149.0742895628729,25.349463768116088,30.534623188405927
31400,31400.0,3.13052365,-9.1131975,0.6740760800000001,0.183582305,0.2044868475,0.216583255,-48.0205549,35.81962565,-137.330019,9.659513737292183,0.3507669930369663,149.82844740840363,25.30136231884073,30.52176811594216
31500,31500.0,3.4172325,-9.09853775,0.6614990000000001,0.16333389250000002,0.3821220375,0.47037888,-46.455383619047616,36.206127047619034,-138.96462285714284,9.744265627099598,0.6277050007940043,150.93095711289294,25.253260869565374,30.508913043478394
31600,31600.0,4.1881637000000005,-9.57707575,1.091258975,0.1074142455,0.18877792,0.2855529775,-44.796753,36.865234,-139.51568999999998,10.511570640524841,0.3614213424085128,151.09739346988704,25.205159420290013,30.496057971014622
31700,31700.0,3.449844325,-8.956088999999997,1.266330715,-0.14984512,0.4665451000000001,0.179828645,-43.440247,37.147521999999995,-140.99884,9.690491534601867,0.5238382323653619,152.14357144324927,25.15705797101465,30.483202898550854
31800,31800.0,3.724887875,-11.800392,0.1934356650000001,-0.07661056549999999,-0.4698219425,-0.07211303749999999,-43.154907,38.189696999999995,-141.18958,12.384554875305236,0.4846143180888333,152.49687359322112,25.108956521739287,30.47034782608709
31900,31900.0,2.4406929,-9.065616499999999,-1.00665283,-1.458259575,-0.313224795,-0.6649284499999999,-45.291138000000004,39.041138000000004,-138.11493000000002,9.454267468815184,1.6334678456364993,150.5032608503051,25.060855072463934,30.45749275362332
32000,32000.0,2.18989945,-11.50471475,-0.6283721925,-1.4963379,-0.4852752675,-0.5208473225,-47.802734,40.167235999999995,-132.3227,11.72993728810138,1.659999933806704,146.3140634424608,25.012753623188573,30.44463768115955
32100,32100.0,2.59428404,-7.7279754,-0.224057008,-0.26899719,0.1037109392,-0.699658188,-50.331115999999994,40.266420000000004,-130.17578,8.155115818481242,0.7618405069965787,145.2595591210102,24.9646521739132,30.431782608695784
32200,32200.0,1.81233212,-8.2884554,-1.29545288,0.414691166,-0.386727904,-0.44207764,-52.568054000000004,38.954163,-130.07811999999998,8.587468868427447,0.7198991758482897,145.60612768394017,24.916550724637844,30.418927536232015
32300,32300.0,3.7494842,-8.0904602,-2.77339476,0.158810424,-0.07994079479999999,-0.14017638999999998,-53.639219999999995,38.674927000000004,-129.88128999999998,9.33855124371891,0.2372635690733047,145.74657935172212,24.868449275362483,30.406072463768247
32400,32400.0,5.47499084,-8.55925,-2.90723568,0.337350466,-0.35754089600000005,-0.0019042969999999992,-53.648376,38.777159999999995,-131.31866000000002,10.569481382833567,0.4919502537776887,147.0591950518517,24.820347826087122,30.39321739130448
32500,32500.0,4.1423738,-7.17060548,-3.02454834,0.34609070200000003,-0.344970704,-0.171282958,-54.812622,38.305664,-130.47485,8.817669695392844,0.5234101923707322,146.61321191324566,24.77224637681176,30.38036231884071
32600,32600.0,3.0910081736842114,-13.111440894736841,-3.403174910526316,0.5841923736842105,-0.1913444136842105,0.6468040105263158,-53.948975,38.690186,-132.74231,13.92269407732262,0.8987810496423657,148.41813656154469,24.724144927536397,30.367507246376945
32700,32700.0,-0.3293975894999999,-6.98158107,2.56015935,0.199504849,0.96252671,0.07154083509999999,-53.575134,39.54773,-134.52759,7.480940561180363,0.9915408071357571,150.10659679867157,24.676043478261036,30.354652173913173
32800,32800.0,5.06712957,-10.79280005,-0.414634706,0.44068679999999993,0.624040223,0.617430885,-50.767517,40.39917,-137.98065,11.932149070846352,0.9850699096918538,152.47325501036792,24.627942028985682,30.34179710144941
32900,32900.0,4.11621021,-9.840917300000001,1.23324049,0.443981934,0.06462325960000001,0.37199936,-49.51477,40.686035,-140.41748,10.75301782669977,0.589763035233679,154.3506870140996,24.57984057971032,30.32894202898564
33000,33000.0,2.5960174250000003,-8.87354095,0.7177032440000001,0.2233162,0.2826812625,-0.1462028525,-49.325559999999996,40.312195,-142.00897,9.274927036191373,0.3912450069593667,155.6426403511985,24.53173913043496,30.316086956521872
33100,33100.0,3.619238985,-9.2478114,1.03092801,0.235879516,0.2019836425,0.240068057,-48.550415,40.4068,-142.83295,9.986167524992334,0.3931443417156154,156.17651516349932,24.4836376811596,30.303231884058103
33200,33200.0,3.48456876,-9.469825199999999,0.4523735045,0.1244552614,0.221424105,0.2635559095,-47.46101229999999,40.425644500000004,-144.4606745,10.101392197100619,0.3662020222868203,157.33939394838526,24.435536231884235,30.290376811594328
33300,33300.0,2.60961152,-8.959678499999997,1.0111084099999998,0.0932998684,0.173707584,0.13455657499999998,-46.785583900000006,40.40687625,-145.1656365,9.387164669725712,0.2393610913787744,157.78051624752771,24.387434782608878,30.27752173913057
33400,33400.0,3.1143097,-9.2988127,0.62960359,-0.026327514960000003,0.471234127,0.26824341,-45.23696915,41.16226029999999,-145.8435805,9.82715780092003,0.5429109500327899,158.14889651047747,24.339333333333517,30.2646666666668
33500,33500.0,4.67041317,-10.015279,1.059722905,-0.0359146118,0.202465822,0.249809262,-43.6006166,41.8247227,-146.6973845,11.103266630767557,0.32513236504541976,158.65196086651326,24.291231884058156,30.251811594203023
33600,33600.0,3.89481816,-11.4432996,-2.71414638,-0.7119338989999999,-0.695230097,-0.385623166,-44.7153465,42.51205455,-145.47516299999998,12.397720718008065,1.067905598273867,158.01860075802347,24.243130434782792,30.238956521739254
33700,33700.0,-0.1920883162,-10.5898868,-0.34639434399999997,-1.92420198,-0.803251646,-1.02253416,-50.0446324,43.9956675,-137.35931399999998,10.597490207039838,2.3223735622016144,152.6687973523125,24.19502898550743,30.22610144927549
33800,33800.0,3.33935394,-10.3745288,-1.7972854919999999,-1.06634214,-0.577841185,-0.71680143,-53.52543428571429,43.41757571428571,-130.62308285714286,11.059207532567092,1.4092228629760422,147.69052356731532,24.14692753623207,30.213246376811718
33900,33900.0,2.44428408,-6.7075684,-1.32418361,0.0015853881999999958,-0.401321408,-0.5031143220000001,-56.6979985,42.18895005,-128.7596165,7.265603521997808,0.6452159502977005,146.8795856538685,24.09882608695671,30.200391304347953
34000,34000.0,2.61600344,-7.59037627,-2.191602355,0.427365115,-0.29000245,-0.06998214500000001,-57.85087590000001,41.1795802,-129.1881535,8.323421300755376,0.5214084621605561,147.41799484694613,24.050724637681352,30.187536231884184
34100,34100.0,4.7131453500000005,-8.336584250000001,-2.662486305,0.526649478,-0.007604217650000002,0.062013246649999985,-57.6632688,40.87364205,-129.97749549999997,9.940268630214698,0.5304223933636277,147.95221348349932,24.00262318840599,30.174681159420413
34200,34200.0,5.878226465,-8.676624799999999,-4.6222581,0.27556457700000003,-0.6158149535,-0.43909149,-58.75526515,39.826431400000004,-130.69419399999998,11.455175792313554,0.8066905156048941,148.72565188155284,23.95452173913063,30.161826086956648
34300,34300.0,0.855377983,-8.5796019,-0.697269455,0.6805748014999999,0.24703979075,0.718478395,-59.08447265,39.774094500000004,-131.20872350000002,8.650441065974551,1.0207222629885706,149.29411296890663,23.906420289855266,30.14897101449288
34400,34400.0,2.97729342,-8.193832400000002,-0.14498215275000034,0.2174491925,1.19140622,0.09476547275,-57.2795873,40.6192768,-133.993915,8.747119391339622,1.2169866305651702,151.27873241902319,23.858318840579905,30.136115942029107
34500,34500.0,4.30979315,-9.56163215,0.3637191824999999,0.28883361949999997,0.700535605,0.5848381005000001,-55.52352875,41.185074,-136.922228,10.502329691669784,0.9581314062395291,153.38446540186078,23.810217391304544,30.123260869565343
34600,34600.0,3.1296234,-9.897598,0.7910919,0.48690796,-0.19285583,0.31192017,-54.65919525,40.71701015,-138.3970655,10.41070675745298,0.6095628967786502,154.27013445596288,23.762115942029187,30.11040579710157
34700,34700.0,2.981186,-9.46785,-0.12350464,0.43151855,0.05215454,-0.041748047,-54.37858545,40.13656615,-140.30532549999998,9.926878007973984,0.4366591971607015,155.7356215016279,23.714014492753826,30.09755072463781
34800,34800.0,2.8411255,-9.021332000000001,1.4255524,0.14176941,0.2641449,0.13722229,-53.53446935,39.8619097,-142.3423775,9.564968625464488,0.3296984238370002,157.21407907837545,23.66591304347846,30.084695652174037
34900,34900.0,3.2864532,-9.616287,0.289505,0.28451538,0.08944702,0.3502655,-52.730255299999996,40.06851075,-143.3438865,10.16649218989442,0.4600387932921253,157.90328407752537,23.6178115942031,30.07184057971027
35000,35000.0,3.7138062000000005,-8.846542,1.4758301,0.13537598,0.058547974,0.2011261,-51.868640157894724,39.773880842105264,-144.1447189473684,9.707303247194274,0.2494117666062992,158.27197609029594,23.56971014492774,30.0589855072465
35100,35100.0,2.2988433999999995,-9.005768,0.7515869000000001,0.06613159,0.3855896,0.23948670000000002,-51.0498047,40.2117933,-144.682314,9.324881828516604,0.458700998800938,158.6066636224513,23.52160869565238,30.04613043478273
35200,35200.0,4.07348032,-9.5705005,1.74123079,-0.00018005366500000028,0.3260841405,0.369128422,-48.9761352,40.260926,-145.702211,10.546272725837186,0.4927119548357355,158.89871959073008,23.473507246377014,30.033275362318964
35300,35300.0,3.55638966,-11.314555325,0.6517997744999999,-0.03905944815,-0.24329681399999997,0.040441894,-48.2933036,40.82244910000001,-145.28945800000002,11.880414323244082,0.25099563384289714,158.4543879046773,23.425405797101654,30.0204202898552
35400,35400.0,2.868061875,-9.711933875,-1.7850127969999998,-1.362017875,-0.24324874850000003,-0.5414123399999999,-49.695435,41.4614864,-142.23129699999998,10.288187221938623,1.4857388822382167,156.26431072297603,23.377304347826296,30.00756521739143
35500,35500.0,0.7675620900000001,-11.9259169,-0.213166806,-1.60298155,-0.6182754535,-0.826055125,-53.526306999999996,41.590883000000005,-134.129331,11.953900065662598,1.906591684784088,150.2850895127694,23.32920289855093,29.99471014492766
35600,35600.0,2.59356765,-8.6262879,-0.797285482,-0.6357085965,-0.221772004,-0.6498085035000001,-55.5815123,40.248413,-129.65011299999998,9.043903146105752,0.9368984519739592,146.6917908407067,23.28110144927557,29.98185507246389
35700,35700.0,1.556156155,-7.8810273,-1.79494554,0.39504012850000003,-0.6331802185000001,-0.4315276985,-57.6643372,38.9376832,-127.97851100000001,8.231316037993553,0.8625015654163082,145.67031830226978,23.23300000000021,29.96900000000012
35800,35800.0,3.13202672,-8.12254767,-3.0595138800000004,0.1125793464,-0.387579345,-0.34374847399999997,-58.70651270000001,37.6901242,-127.0906095,9.22797844754308,0.5322573440451889,144.97947959258542,23.18489855072485,29.956144927536354
35900,35900.0,4.38227542,-8.1157214,-2.31933293,0.09894562,-0.023371887650000003,0.01289978,-59.1697697,36.8119809,-127.1040344,9.51131471256724,0.1085933505715832,144.953857727551,23.13679710144949,29.943289855072585
36000,36000.0,5.01912691,-8.287388900000002,-3.88597874,0.29282530500000004,-0.1230865515,-0.134432986,-59.170531999999994,35.94818,-126.62201,10.439139444072984,0.34516305066657305,144.31409120011645,23.08869565217413,29.930434782608813
36100,36100.0,1.91157682,-8.1381023,-0.936932384,0.697097779,0.401567078,0.458071904,-58.7507625,36.2730404,-127.853549,8.413051340537143,0.9263637975875284,145.3064689290086,23.04059420289877,29.91757971014505
36200,36200.0,4.87415469,-9.6744625,-2.60257111,0.1002212555,0.91758272,0.05124359135,-57.377472,36.8501282,-129.679264,11.231753286011376,0.9275673448487171,146.51601783632773,22.99249275362341,29.90472463768128
36300,36300.0,2.52497705,-9.18365925,-0.424684139,0.477110287,0.88848878,0.6018890600000001,-55.8561705,37.27264470000001,-132.955471,9.53999694638236,1.1761563884391553,148.9510217579352,22.94439130434805,29.891869565217515
36400,36400.0,2.138972475,-10.11876415,0.654312896,0.48216934200000006,-0.0254554754,0.2134307875,-54.7171037,37.105255,-135.442813,10.365796532035947,0.5356484718703325,150.7167164601506,22.896289855072688,29.879014492753743
36500,36500.0,3.769568385714286,-9.419446714285714,0.12550136,0.3892081128571429,0.08974347714285713,0.10206386042857143,-53.844299,36.8040462,-136.896668,10.146666335442314,0.4254578388015543,151.63923762832468,22.84818840579733,29.866159420289968
36600,36600.0,3.0363662999999996,-8.980388999999997,0.98082581,0.055700683499999994,0.438414004,0.1311462405,-53.06518520000001,36.647338700000006,-139.070132,9.530839383071717,0.4614355986386516,153.29531024813178,22.80008695652197,29.85330434782621
36700,36700.0,2.6856216,-9.4271406,0.430041499,0.26938324,0.19948272399999997,0.360815431,-51.7082214,37.0051573,-140.363621,9.81220689566626,0.4927934617530457,154.09435630637404,22.751985507246605,29.840449275362438
36800,36800.0,3.37431031,-9.4608945,0.8431549039999999,0.1084320069,0.182006838,0.24917145100000002,-50.3625486,37.1777345,-140.48691100000002,10.08103044647462,0.3271483061228222,153.80229395311937,22.703884057971244,29.827594202898673
36900,36900.0,3.33445433,-9.2638611,0.769177242,0.0186264042,0.306431578,0.194200138,-49.438095000000004,36.90612700000001,-141.378171,9.876272431452392,0.3634462719631576,154.25322374324728,22.655782608695887,29.814739130434898
37000,37000.0,2.64671023,-9.39506075,0.94743349,-0.0652191162,0.387281796,0.201454165,-47.97523495,37.6637266,-141.10480900000002,9.806700346789254,0.4418510096686263,153.7230677962322,22.60768115942052,29.80188405797113
37100,37100.0,4.053844978947368,-11.363983131578946,0.40096001052631575,-0.2475023757894737,-0.2003165842105263,0.04291092678947368,-47.0408634,37.900772499999995,-140.452503,12.076258735347269,0.3258379351672501,152.8929129352605,22.559579710145158,29.789028985507365
37200,37200.0,1.6987722368421052,-9.342898263157897,-1.6511832684210528,-1.521004152631579,-0.4872059084210527,-0.8159227884210526,-48.9086155,38.3764646,-136.2916545,9.650636811896627,1.7935313418625054,149.8013876062341,22.511478260869797,29.776173913043603
37300,37300.0,1.89792407,-11.2160934,-0.87187192,-1.439034995,-0.2609771757,-0.667001339,-51.52969355000001,37.95661895,-129.7450995,11.409346573206436,1.610361288273505,144.67144779030448,22.463376811594443,29.763318840579828
37400,37400.0,2.687773225,-8.160844945,-0.4000289845,-0.3048461905,-0.02342224055,-0.821942155,-53.37928910000001,36.6271974,-127.56095800000001,8.605565758248433,0.8812703536537227,143.04833168453956,22.41527536231908,29.75046376811606
37500,37500.0,1.8624953999999998,-7.658551805,-1.479396065,0.23844757,-0.4074562105,-0.35541076200000005,-55.051727,35.059967099999994,-126.29455300000001,8.020860841824915,0.5972298695852342,142.1626472966608,22.367173913043718,29.73760869565229
37600,37600.0,4.84052128,-8.131875599999999,-2.70468442,0.30518188399999996,-0.0403137212,0.119955446,-55.1412958,34.996642800000004,-126.75399650000001,9.84489687784306,0.3311373621893644,142.59001753162696,22.319072463768357,29.724753623188523
37700,37700.0,5.41393734,-8.434982199999999,-2.81338192,0.386349492,-0.44638977399999996,-0.0604919428,-54.758909700000004,34.5112612,-126.92978,10.410404640413503,0.5937736029525227,142.48067011744834,22.270971014492996,29.711898550724754
37800,37800.0,3.24694522,-7.2848143,-2.78848268,0.33650513,-0.46599428,-0.327874752,-55.4595963,33.573303100000004,-125.913698,8.472808110879969,0.6757923691345042,141.62342314879612,22.222869565217643,29.699043478260986
37900,37900.0,3.33170164,-10.987198,-3.14785162,0.671627808,-0.195202638,0.58717956,-54.54559329999999,34.4923402,-127.2547905,11.913822601364064,0.9136359956335056,142.68407884579418,22.174768115942275,29.686188405797214
38000,38000.0,0.38802794,-8.6918852,0.8494995120000001,0.153482054,0.75161134,0.29402466,-53.8359086,34.960480100000005,-128.929294,8.74569637844782,0.8377608175809584,144.02577223045162,22.126666666666914,29.67333333333345
38100,38100.0,3.70932775,-9.8539125,0.86561200125,0.504230505,0.41993332,0.422439575,-51.9647213,36.276855600000005,-131.64703400000002,10.575921007943908,0.7946901185317996,146.10713277786948,22.078565217391553,29.66047826086968
38200,38200.0,3.08773425,-9.72790925,1.096351625,0.5899734525,0.03165054325,0.1670455925,-51.1222078,36.265946500000005,-133.593519,10.266972179720792,0.6164006789793599,147.5667315958594,22.030463768116192,29.64762318840591
38300,38300.0,1.869373325,-8.931846499999997,0.4083137525,0.2046203575,0.3107490525,-0.06225204375,-51.2768552,35.935745399999995,-134.51476649999998,9.136827773947934,0.37967999156483945,148.37425807043374,21.982362318840828,29.634768115942144
38400,38400.0,2.555915825,-9.4726295,0.8144340525,0.2333831825,0.3387107825,0.2250976575,-50.55892950000001,36.14067170000001,-135.8882865,9.847040122730018,0.469008200496559,149.42566753880726,21.934260869565467,29.621913043478376
38500,38500.0,3.3834115,-9.4609565,0.255081177,0.1457633975,0.32726288000000003,0.223770145,-49.15084855,36.3548295,-137.93747249999998,10.053972058215829,0.42288901060841183,150.87824962899288,21.886159420290106,29.60905797101461
38600,38600.0,2.548130025,-9.43731325,0.5540618900000001,0.0797157295,0.328063955,0.078086853,-48.4537515,36.355667,-138.1903875,9.794397787549084,0.3479093032493129,150.88443375136632,21.83805797101475,29.59620289855084
38700,38700.0,2.96233365,-9.18353275,0.69322585,-0.040653228625,0.555496235,0.185413365,-47.08213815000001,36.89292885,-139.4715925,9.677023850517301,0.5873724850899998,151.75692675727092,21.789956521739388,29.58334782608707
38800,38800.0,3.4363861000000004,-9.51512925,1.20049285,-0.024944305,0.237773895,0.308990475,-45.27954145,37.29385225,-140.44387899999998,10.189319238172448,0.3947986401502953,152.20238030143474,21.741855072464027,29.570492753623306
38900,38900.0,3.53604505,-11.78902025,-0.758556365,-0.3533134425,-0.540393825,-0.1932792675,-45.13954145,37.5591281,-139.633478,12.345690427850544,0.678598712256765,151.4787109863076,21.693753623188663,29.55763768115953
39000,39000.0,0.75248335,-9.8344495,-0.5535545325,-1.832164725,-0.5124397275,-0.838302625,-47.4003599,38.145523499999996,-134.05921800000002,9.88603450987681,2.0791089659833957,147.22053102367394,21.6456521739133,29.544782608695765
39100,39100.0,2.6710734736842103,-11.807985684210527,-0.7841708526315789,-1.2490178157894738,-0.2923784736842105,-0.7384868452631579,-49.58793705,38.55110125,-128.468705,12.132759563685514,1.4814143068455434,143.00141984747955,21.597550724637948,29.531927536232
39200,39200.0,1.76923832,-7.60671235,-0.24847258850000006,-0.1313613885,-0.34646606399999996,-0.640002445,-51.6409302,37.38098280000001,-126.7538448,7.8250372388856135,0.7534493997591606,141.88276694629425,21.549449275362587,29.51907246376823
39300,39300.0,1.19212491,-7.69302669,-1.49273987,0.313388064,-0.265934751,-0.164256287,-52.509765599999994,36.718445200000005,-125.659484,7.932528071024424,0.4444277840157692,141.05259080349938,21.501347826087226,29.50621739130446
39400,39400.0,3.88200986,-8.1176375,-2.44240267,0.26139984,-0.135435484,-0.11120148,-52.489624,36.8316654,-125.59905800000001,9.325681944363033,0.3221027015799794,141.0208023425908,21.453246376811858,29.49336231884069
39500,39500.0,5.24860839,-9.2089125,-3.23284914,0.20462189,-0.31706238,-0.06859130990000001,-52.8216552,36.30615220000001,-126.2149048,11.082787502852806,0.38651830892077865,141.55729302927304,21.4051449275365,29.480507246376924
39600,39600.0,2.59344477,-6.73714148,-1.6663207599999998,0.365260319,-0.017834473,-0.040153502,-53.13568000000001,36.5533448,-126.115416,7.418350971940683,0.3794729620996569,141.64991429579257,21.35704347826114,29.467652173913155
39700,39700.0,4.3572524,-12.4337826,-4.16862183,0.75227052,-0.0235900882,0.508033745,-51.8066406,37.4453732,-128.31268,13.843221911496627,0.9115532424200401,143.3537302490107,21.308942028985783,29.45479710144939
39800,39800.0,0.07002579578947365,-7.355909626315791,1.5484764,0.04180024684210526,0.5726768105263158,0.11388598010526314,-51.236572,37.962953000000006,-130.41503799999998,7.542544367757562,0.6123882604989667,145.17047180844526,21.260840579710422,29.44194202898562
39900,39900.0,3.78635634,-10.34969135,0.05744627999999996,0.4675788825,0.6788528425,0.47192304799999996,-49.41864,38.92761340000001,-132.62909199999999,11.031290982353733,0.9510771185914229,146.79259308155488,21.212739130435054,29.42908695652185
40000,40000.0,3.08551405,-10.04580125,0.3592308125,0.6152191075,0.16358032449999999,0.1969245935,-48.5156252,39.1973872,-134.9588,10.515487156796958,0.6788157166030191,148.67463829547202,21.164637681159693,29.416231884058078
40100,40100.0,1.838256135,-8.7881939,0.7921104375,0.18102417,0.301583863,-0.044785308655000015,-48.1668088,38.6502074,-135.882876,9.015881345648236,0.3561376309402804,149.2583689087416,21.116536231884336,29.403376811594313
40200,40200.0,2.57787857,-9.39350485,0.443209074,0.23535461800000002,0.354905698,0.3011550905,-47.279052,39.1055286,-137.32360799999998,9.751489583044103,0.5221457643103073,150.40730254558338,21.06843478260897,29.390521739130545
40300,40300.0,3.31458281,-9.109313,1.394129975,0.0788635285,0.2850273155,0.3166595425,-45.570984,39.518738,-138.659972,9.79658920385802,0.4343818444805755,151.21190357988996,21.020333333333614,29.377666666666777
40400,40400.0,2.218035155,-9.55630755,1.12508467,0.0975593576,0.1998573315,0.2150344825,-44.29077120000001,40.0830078,-139.60387999999998,9.877157228575381,0.311365771915393,151.8471893754314,20.972231884058253,29.364811594203008
40500,40500.0,3.39346622,-9.2447082,1.3896393,-0.0864105226,0.63699036,0.256311034,-42.61749200000001,40.53100560000001,-140.303346,9.945950144147503,0.6921388050582942,152.13177875878768,20.924130434782885,29.35195652173924
40600,40600.0,3.73919674,-10.604608099999998,1.12675474,-0.06787414600000001,-0.0573547354,0.08288879399999999,-41.33911125,41.2536625,-140.59753500000002,11.303933820637262,0.1657777836627103,152.24477772700638,20.87602898550753,29.33910144927547
40700,40700.0,2.18199772,-10.60365,-2.20572814,-1.18108212,-0.5720947160000001,-0.69007262,-42.7646625,41.91055425,-137.379455,11.049820694235295,1.4869972069354902,149.86230861147706,20.82792753623217,29.326246376811703
40800,40800.0,0.4612915092,-10.7003756,0.5195861820000001,-1.53069762,-0.213311766,-0.5884429999999999,-45.539475,42.67997725,-130.734635,10.739665934655644,1.6553599457936612,144.86908939637146,20.77982608695681,29.31339130434793
40900,40900.0,1.83124696,-9.4134978,-0.315036004,-0.66080322,0.0662170416,-0.6259369,-47.6581575,42.222595,-126.07536499999999,9.595137378857103,0.9180658042006444,141.24124808505414,20.73172463768145,29.30053623188417
41000,41000.0,2.34337464,-7.9010774,-1.26983948,0.1027771,-0.353073122,-0.48511354,-49.869919,41.2147525,-125.54626499999999,8.342642747061783,0.6119406922522006,141.23580193448822,20.683623188406084,29.2876811594204
41100,41100.0,3.2501205250000003,-8.247277,-2.505550415,-0.0316520694,-0.321696466,-0.11711578199999999,-51.030731,40.764618,-124.0264875,9.21573960677343,0.34385639441404714,140.17296823526016,20.635521739130727,29.27482608695663
41200,41200.0,3.72728345,-8.294088,-2.31874013,0.321640014,-0.1889144895,0.009867858657,-50.937271,40.93246425,-124.63112,9.388070360775373,0.3737868781923089,140.72313287571131,20.58742028985537,29.26197101449286
41300,41300.0,4.30200202,-8.355615299999998,-3.265403,0.230077365,-0.101296994,-0.1105140705,-51.2050625,40.816116,-124.66011075,9.95545258954158,0.27527576645914664,140.8122991461464,20.539318840580002,29.24911594202909
41400,41400.0,3.0942542800000004,-8.66441015,-2.581621535,0.526702122,-0.0299728408,0.2535385145,-50.8426665,41.14685175,-124.91722,9.559728650231753,0.5941198024697572,141.00484306724894,20.491217391304644,29.236260869565324
41500,41500.0,4.6398255000000015,-12.1294158,-3.555884555,0.37043533100000003,-0.031359099849999995,0.236605072,-49.81384275,42.12264925,-127.4036425,13.472323157962055,0.4481384224241095,143.1343134440859,20.443115942029287,29.22340579710156
41600,41600.0,-0.08548965550000001,-7.85140057,1.600509659,0.4845748885,0.3888877865,0.400762946,-49.11499125,42.80891475,-128.43704,8.086987425273536,0.7453979373623043,144.01775852844895,20.395014492753926,29.21055072463779
41700,41700.0,2.62683865,-9.107521,0.68574524,0.55669402,-0.08952331664999999,0.232025145,-47.45102075000001,43.02711475,-131.6413875,9.52441911255293,0.6161702724127671,146.39811196854134,20.34691304347856,29.19769565217402
41800,41800.0,2.5951232999999996,-9.2655335,0.25479126,0.37825775,0.144836425,0.02696228,-47.2389225,43.14918400000001,-132.9666125,9.627184295302763,0.4075240372600609,147.55843458908086,20.2988115942032,29.18484057971025
41900,41900.0,2.21923065,-9.101532,0.9646683000000001,0.14709472499999998,0.34243774000000005,0.0115127565,-46.8055715,42.8440095,-134.1289475,9.417849751066722,0.3748334719130475,148.38108350306254,20.25071014492784,29.17198550724648
42000,42000.0,2.3999938999999997,-9.467247,0.287109375,0.20143127,0.24656677,0.287422175,-46.18034375,43.0603025,-135.70709250000002,9.771277321033196,0.42984191972633423,149.67723184315315,20.20260869565248,29.159130434782714
42100,42100.0,3.11346435,-9.424156,0.9670639000000001,0.210479735,0.09796142599999999,0.19793701,-44.84672550000001,43.624497,-136.558535,9.972965468320774,0.3060646577864299,150.20844963053628,20.15450724637712,29.146275362318946
42200,42200.0,2.09293365,-9.4732285,0.214683535,0.09703063599999999,0.304626465,0.16224670000000002,-44.190979,43.529509999999995,-137.3725925,9.710612855783037,0.363518265756346,150.72792159284296,20.10640579710176,29.133420289855174
42300,42300.0,2.5957183999999995,-8.9866105,1.01135255,-0.0345306395,0.52087403,0.15904999,-43.1875609,43.7518313,-137.536623,9.408705548742383,0.5464340924837168,150.65126733499702,20.058304347826397,29.12056521739141
42400,42400.0,3.220542165,-9.7915411,1.292677325,-0.1231063825,0.34616775450000004,0.27831039399999996,-41.454467,44.094238,-138.09067199999998,10.392573562893606,0.4635495286453734,150.77077631295356,20.01020289855104,29.10771014492764
42500,42500.0,3.738176765,-11.51955545,-1.354774497,-0.4858833355,-0.6836799714999999,-0.424501045,-41.955166052631576,44.50755736842106,-136.72806947368423,12.207051566434842,0.94407363487592,149.78622011629386,19.962101449275675,29.09485507246387
42600,42600.0,-0.579352579,-10.58300695,-0.185805515,-1.96943284,-0.741779325,-0.8246131800000001,-45.3796391,44.758606,-128.832701,10.617835714328317,2.261599330038265,143.73865032191924,19.914000000000318,29.082000000000104
42700,42700.0,2.895651215,-10.80464855,-0.467601775,-1.209944925,-0.30599136,-0.490494534,-47.2610469,44.190979999999996,-122.0967095,11.204715695147417,1.3422446111830335,138.18188722852378,19.865898550724953,29.069144927536332
42800,42800.0,1.561000835,-7.08896795,-1.20693358,0.12739333725000002,-0.659756465,-0.486500555,-49.178314799999995,43.200225599999996,-120.40527420000001,7.383724436032374,0.8317972771835457,137.0483371835354,19.817797101449596,29.05628985507257
42900,42900.0,1.5937412714285717,-8.04038557142857,-1.5972965857142856,0.2884695914285714,-0.17505319,-0.3412475628571429,-50.7304384,42.0614626,-119.77477900000001,8.352271948864995,0.48235091746135295,136.70683924018604,19.769695652174228,29.0434347826088
43000,43000.0,3.97071222,-7.95350972,-2.2943206600000003,0.24743957600000002,-0.0158081054,-0.0044616697599999975,-51.134491100000005,42.2076416,-120.1643368,9.182970960031794,0.2484152975083289,137.24331108861406,19.72159420289887,29.03057971014503
43100,43100.0,5.0911926,-9.2985748,-3.88286742,0.417880256,-0.21692809600000001,-0.061560060800000004,-50.8517456,42.6100166,-121.5544105,11.290025981467831,0.4800947543863207,138.48103840276974,19.673492753623513,29.017724637681265
43200,43200.0,1.77809752,-7.35137328,-1.5377471999999999,0.392752072,0.07772827080000001,0.03558959599999999,-51.3769533,42.5453192,-121.201477,7.741845985411822,0.4355005774990801,138.34572037092263,19.62539130434815,29.00486956521749
43300,43300.0,5.513886299999999,-13.01425155,-4.834091225,0.359612274,-0.244092567,0.379992667,-49.6385195,43.643798700000005,-123.4799172,14.940599965361333,0.5853943581027536,140.05735261216287,19.577289855072788,28.992014492753725
43400,43400.0,-0.09889373705,-7.32515495,2.040863015,0.3912467985,0.279379274,0.281073758,-49.454193,44.2063914,-124.85382050000001,7.624936700351694,0.6089831144697474,141.38050308551294,19.529188405797427,28.97915942028996
43500,43500.0,2.52210311,-10.15156945,0.380963898,0.504917898,0.357086185,0.3103729265,-47.7166748,44.9746706,-127.45956399999999,10.469520888332204,0.7073560433991453,143.33747877365943,19.481086956522066,28.96630434782619
43600,43600.0,2.74476319,-9.936923599999998,0.630854801,0.548699955,0.36081543950000006,0.118094637,-46.6769408,45.1774602,-129.744112,10.328492696122726,0.6713158990465709,145.0975930638614,19.432985507246705,28.95344927536242
43700,43700.0,2.17972715,-9.018089,0.657852175,0.150074771,0.392195129,-0.0121383666,-46.4321899,45.1835636,-131.346585,9.302745949382787,0.4209345582959374,146.45639008678754,19.384884057971345,28.94059420289865
43800,43800.0,2.3805968999999996,-9.500884800000001,0.74188383,0.22187042,0.32316284100000003,0.204856873,-45.7575986,45.5912777,-132.47650000000002,9.823867528297251,0.4423033397599966,147.3852793520526,19.336782608695984,28.927739130434887
43900,43900.0,2.99615017,-9.4447467,0.72991487,0.13068848,0.30430908,0.28315277,-44.3692013,45.8242795,-133.59268200000002,9.938404584954412,0.4360080817324559,148.03896628653783,19.288681159420626,28.914884057971115
44000,44000.0,2.46187895,-9.5168047,0.75410308,0.0843551652,0.314527893,0.15638885600000002,-43.3973695,46.08673080000001,-134.170224,9.859599341132697,0.3632308779676175,148.35430656758254,19.240579710145266,28.902028985507346
44100,44100.0,2.94479067,-9.3797423,1.2167755050000002,-0.013232422600000002,0.5154373299999999,0.192713925,-42.1461488,46.264953000000006,-135.375979,9.91544457866318,0.5516667023459101,149.1425160792973,19.192478260869898,28.889173913043575
44200,44200.0,2.88153075,-10.197177750000002,1.8149147,-0.07260895049999999,0.15628433200000005,0.27542877250000003,-40.67520089999999,46.955870000000004,-135.340733,10.752480089804891,0.3298674246197397,148.91761956858062,19.14437681159454,28.87631884057981
44300,44300.0,1.895420075,-11.51727675,-2.206157675,-0.7152366825,-0.4660949725,-0.401805875,-41.081746,47.26613366666667,-133.43200333333334,11.890955180553133,0.9477411742752888,147.3973913241576,19.09627536231918,28.86346376811604
44400,44400.0,-0.405708315,-10.03825725,0.5501746949999999,-1.80952455,-0.27993774,-0.73496626,-43.91807505,47.24716165,-125.983049,10.0617668081496,1.9731202547725075,141.53886941617046,19.048173913043822,28.850608695652276
44500,44500.0,1.97652435,-10.260029,-0.6307639900000002,-0.977020275,-0.316963195,-0.624187475,-46.20582565,45.80711385,-119.46220425,10.47305356102816,1.2034630321900108,136.03150892338152,19.000072463768454,28.837753623188505
44600,44600.0,1.881351475,-7.549789325000001,-0.966259025,0.123661038,-0.3417282175,-0.39728164,-48.142853,44.71336355,-117.86384440000002,7.843032090151938,0.5444034227249375,134.9404870823445,18.951971014493093,28.824898550724736
44700,44700.0,2.519702875,-8.498786875,-2.383319825,0.07999038750000001,-0.5182876574999999,-0.2273674,-48.656082,44.02114805,-117.06695459999999,9.179339036296154,0.5716396167094889,134.20142978097616,18.903869565217732,28.81204347826097
44800,44800.0,3.11525576,-8.2961212,-2.24882508,0.26981506,0.010821533199999995,0.0811889646,-49.04205345,44.376220700000005,-117.5418835,9.143151840683496,0.2861587630789532,134.87219387905736,18.85576811594237,28.7991884057972
44900,44900.0,5.73930368,-9.0787904,-3.5366668800000003,0.192053224,-0.27210694,-0.264608776,-48.95660305000001,44.3063365,-117.96547,11.308811806542034,0.4310925906963641,135.18778197640756,18.80766666666701,28.78633333333343
45000,45000.0,0.22450256440000005,-9.3050322,-0.3679412719999999,0.5416626,0.394741816,0.34046325479999995,-49.31144715,44.13696305,-118.82026665,9.332665978548754,0.7599818019398079,136.00737509852988,18.759565217391653,28.773478260869666
45100,45100.0,3.43919984,-7.95542908,0.2071441599999999,0.219955448,0.966149904,-0.1058776864,-48.35701075,45.1386256,-120.6820684,8.793594754143086,0.9973420940815404,137.62292463895588,18.711463768116293,28.76062318840589
45200,45200.0,3.09132388,-9.2250728,-0.13857726799999992,0.45026244,0.567535398,0.6253174,-47.61993345000001,45.96450825,-123.2672871,9.753964905134284,0.9710028538580041,139.91152361127004,18.66336231884093,28.74776811594213
45300,45300.0,2.56866754,-10.2648776,1.04774474,0.45048523,-0.014950562400000006,0.296154784,-46.33537375,46.438598799999994,-125.1818845,10.653789922139024,0.5434607926765991,141.32951922336622,18.61526086956557,28.73491304347836
45400,45400.0,2.04103697,-9.33041775,0.10862197775000004,0.4597549455,-0.09192123150000003,-0.00494918805,-46.082992,46.3279725,-127.1086865,9.5586333426386,0.4732153166537197,142.92166232677084,18.56715942029021,28.72205797101459
45500,45500.0,1.90433422,-9.7800515,0.423811345,0.08105163585,0.25291061400000003,0.23735427899999997,-45.73112495,46.672973600000006,-128.53088425,9.973954899957015,0.35784129908645435,144.18708446182484,18.519057971014853,28.70920289855082
45600,45600.0,2.49713825,-9.5730629,0.507254785,0.23033904800000002,0.280598452,0.249810795,-44.570465000000006,46.83464,-129.29535249999998,9.908699503689412,0.44101267886603496,144.55914827904786,18.470956521739488,28.69634782608705
45700,45700.0,1.548315435,-8.93962155,0.983525075,0.284249117,0.0625419619,0.3200080975,-43.5688024,47.39646925,-130.286785,9.12858700270235,0.4327538886195296,145.32496736365195,18.42285507246413,28.683492753623284
45800,45800.0,2.4681738999999996,-9.7396445,0.5562171890000001,0.1491729755,0.31889648000000004,0.303178418,-41.88385,47.891234999999995,-130.76324,10.064140699044179,0.4650983442753356,145.41957301527648,18.374753623188766,28.67063768115952
45900,45900.0,3.759476545,-9.53972965,1.370478815,-0.01956710805,0.430221556,0.28502425800000003,-40.9471885,48.3310696,-131.958009,10.345746028219493,0.5168089000081196,146.37447930429371,18.326652173913406,28.65778260869575
46000,46000.0,2.2883011200000003,-12.2670246,-0.12864837799999995,-0.1374389677,-0.6254607999999999,-0.151152035,-40.851821799999996,48.7049096,-131.220628,12.481230011373633,0.6592334963146373,145.8079137743943,18.27855072463805,28.64492753623198
46100,46100.0,0.5468750200000001,-9.4606586,-1.34621585,-1.53687746,-0.306524655,-0.677172845,-43.052368,48.389282,-126.1785888,9.572002262492742,1.7082461505204347,141.8325290362728,18.230449275362684,28.63207246376821
46200,46200.0,1.85375058,-11.201481300000001,-0.3674697890000001,-1.69048458,-0.219592283,-0.39893951,-45.5169682,46.759642799999995,-118.44360400000001,11.37086252518681,1.7516788048097696,135.23055177393806,18.182347826087323,28.619217391304442
46300,46300.0,2.6882552100000003,-8.507887599999998,-0.311915589,-0.46394042,0.297274783,-0.68165741,-48.3383188,45.113832,-114.972228,8.932527364804956,0.8785800061803279,132.62982704118934,18.134246376811962,28.606362318840674
46400,46400.0,1.63731996,-7.80782932,-2.09320519,0.31093139399999997,-0.5059387399999999,-0.348330684,-50.3598028,43.948975,-114.502256,8.249638323343344,0.6888724002263912,132.58365552754617,18.0861449275366,28.593507246376905
46500,46500.0,2.4011902000000003,-7.82075357,-2.49567418,0.241900636,-0.14193115,0.013320922799999996,-50.709533799999996,43.6285404,-114.45251499999999,8.553370982396379,0.2845863832489784,132.56806940785512,18.038043478261237,28.580652173913137
46600,46600.0,5.1989714000000005,-9.279590578947367,-3.343944326315789,0.22940626,-0.3231474189473684,0.013813219473684205,-50.6365956,44.217224,-114.882202,11.150199296136018,0.3972207819833767,133.1058433420445,17.98994202898588,28.567797101449372
46700,46700.0,2.4527908600000004,-7.673564135,-2.78106617,0.3763435335,0.03713150069999999,0.001229095750000006,-50.8532712,44.067994,-115.19226,8.524416326764186,0.384842323503246,133.4065804804352,17.94184057971052,28.5549420289856
46800,46800.0,5.229167365,-13.9548801,-4.897714245,0.27690276,-0.3223426775,0.309253692,-49.79644879999999,45.3012086,-116.94213799999999,15.69355472905848,0.5298184430328929,134.93469284758595,17.893739130435158,28.542086956521825
46900,46900.0,-0.9098144565,-7.261650199999999,0.8545303249999999,0.418158719,0.418820193,0.30009841800000003,-50.432434,45.1626586,-119.02435259999999,7.374558096921576,0.6719040670851779,136.9302855759288,17.845637681159797,28.529231884058067
47000,47000.0,2.15890194,-9.8705505,-0.21943893,0.497730258,0.5563453429999999,0.037393952000000015,-49.4647224,46.42181400000001,-122.463682,10.111701464693132,0.7482263871909888,139.99706465298186,17.797536231884433,28.51637681159429
47100,47100.0,3.27154083,-9.9928295,0.8587264984999999,0.606967925,0.2484329223,0.2405967725,-48.920041142857144,46.782647904761895,-124.68595857142857,10.549957118507898,0.700281751994751,141.87470990260005,17.749434782609075,28.50352173913053
47200,47200.0,1.9756165,-9.254761,0.050079346,0.2110138,0.3110199,0.09460449,-48.786926,46.965027,-126.38855,9.463412157519562,0.3875696215063948,143.3873895457432,17.701333333333714,28.490666666666762
47300,47300.0,2.4819946,-9.431931,1.0448761,0.22380066,0.19915771,0.21284485,-48.17695629999999,47.41218605,-127.581177,9.808842217486289,0.3674962027564396,144.38112656367517,17.653231884058357,28.47781159420299
47400,47400.0,2.0917358,-9.1147,1.2795105,0.15562439,0.31846620000000003,0.34387207,-47.23732045,47.75123645,-128.52638299999998,9.438763789109878,0.4938498474550711,145.01930467646642,17.605130434782993,28.46495652173922
47500,47500.0,1.8882293999999997,-9.801834,0.8090515,0.16307068,0.32167053,0.25013733,-46.1203004,47.9882816,-130.127868,10.0147852877749,0.43889937389528383,146.16181859968685,17.557028985507635,28.45210144927545
47600,47600.0,2.7309875,-9.46904,0.80545044,0.034179688,0.5379181,0.2948761,-44.920348,48.423767,-131.60888799999998,9.887859306141669,0.6143907939826225,147.2539157669484,17.508927536232267,28.439246376811685
47700,47700.0,2.9512633999999998,-11.941055,0.7623595999999999,-0.12986755,-0.03413391,0.077560425,-44.0805058,48.739014000000005,-131.226808,12.32395806260784,0.15506877145663864,146.76199734971001,17.46082608695691,28.42639130434792
47800,47800.0,1.6057128999999999,-9.321793,-1.5276947,-1.4721069,-0.2418518,-0.56692505,-45.66040039999999,48.5061644,-127.79296799999999,9.58164859241266,1.5959307724673877,144.11487882550497,17.41272463768155,28.41353623188415
47900,47900.0,1.20157779,-11.4310882,0.24754486100000006,-1.5746452299999998,-0.312212376,-0.6546959185000001,-48.5992424,46.9592284,-120.875854,11.498149168656445,1.7337846487855642,138.48581465460038,17.36462318840619,28.40068115942038
48000,48000.0,1.51443248,-8.62352255,-0.314796449,-0.6257499799999999,0.09369430285000001,-0.7551048229999999,-51.1346434,44.2462162,-116.430664,8.761211097416151,0.9866101523293256,134.6432783042569,17.316521739130827,28.38782608695661
48100,48100.0,0.931623825,-7.27996372,-0.8639594999999999,0.2162361155,-0.6117713929999999,-0.291979215,-52.8546907,42.7001192,-115.65879550000001,7.390560668597898,0.7123715962661682,134.14131248804156,17.268420289855467,28.374971014492846
48200,48200.0,3.416026285,-9.90095195,-3.21620245,0.34677429200000004,-0.4229995725,-0.0018562316350000004,-52.75756835,43.058777,-115.49362250000001,10.957961292068104,0.5475307427677933,134.07534515579425,17.220318840580106,28.362115942029074
48300,48300.0,3.14308995,-8.37997545,-2.058250465,0.236039738,-0.1762969965,-0.19573898399999998,-53.48510699999999,42.2850798,-116.307298,9.18365793794178,0.3577544545635588,134.81900932844525,17.172217391304745,28.349260869565306
48400,48400.0,3.09329143,-6.86426693,-2.47585601,0.430342095,-0.2347221377,-0.2126701325,-53.53881835,42.27645825,-116.32217620000002,7.929685501530349,0.5399673220289809,134.8502167206577,17.124115942029384,28.336405797101534
48500,48500.0,2.33318947,-12.4783185,-2.34735258,0.7849700959999999,-0.118388368,0.52773435,-52.83332829999999,43.19313065,-119.0913365,12.937436099421706,0.9574950410226444,137.25823224396888,17.076014492754027,28.32355072463777
48600,48600.0,-0.926870727,-7.06765287,2.1298096,0.020437622460599998,0.7374450640000001,0.0186462405,-52.689437899999994,43.070527,-120.40847579999999,7.4561595430191705,0.7484688229205313,138.3093540242055,17.027913043478662,28.310695652174
48700,48700.0,4.471939099999998,-10.8550398,-0.286660768,0.5449661299999999,0.26147613199999997,0.4804489160000001,-51.20826675,44.317627,-123.8462045,11.743949193392956,0.7739237433780992,141.1532678487412,16.9798115942033,28.297840579710236
48800,48800.0,2.33655086,-9.9884627,1.97130282,0.5606277199999999,-0.038919067,0.06914978000000001,-50.60356135,44.605026099999996,-125.4500585,10.45189406082388,0.5687601783521928,142.43617054036298,16.93171014492794,28.284985507246464
48900,48900.0,0.923373414,-8.852526800000001,0.987771576,0.155410767,0.418289188,-0.046543885,-50.66947915,44.09065235,-128.05954,8.955421792949638,0.4504856732687936,144.60509724522257,16.88360869565258,28.272130434782696
49000,49000.0,2.20475002,-9.44737395,1.17235869,0.257131955,0.329235834,0.266960143,-49.8817445,43.99757279999999,-129.4853255,9.772813852064374,0.4958047104840881,145.57002787017234,16.83550724637722,28.25927536231893
49100,49100.0,2.7963592200000003,-9.37446645,0.7260246359999999,0.16908874149999997,0.3750419635,0.2327735955,-48.6464685,44.50637815,-131.5834075,9.809674117147786,0.4727866624637485,147.17913286577215,16.787405797101858,28.24642028985516
49200,49200.0,2.017582695,-9.2403992,1.260703299,0.138462065,0.2019378705,0.17848739800000002,-47.68340975,44.3555446,-133.203815,9.543765563928403,0.3033121028956136,148.27147295042195,16.739304347826494,28.23356521739139
49300,49300.0,2.234314685,-9.34286665,0.951315315,0.0586791995,0.486362469,0.3118171665,-46.733856,44.67178275,-134.2683435,9.653993984820405,0.5807827026615685,149.02236678651477,16.691202898551136,28.220710144927626
49400,49400.0,3.65898132,-10.75323375,1.333909575,-0.101745609,0.2997230495,0.2953582725,-44.91951015,45.00137335,-135.039898,11.437256347681267,0.434247169823132,149.26051601155132,16.643101449275775,28.20785507246385
49500,49500.0,1.82837673,-11.67033425,-1.4371413999999998,-0.7108749345,-0.6062911965,-0.35786209999999996,-45.106964700000006,44.5257566,-134.322281,11.905285060553865,1.0028389023384785,148.52509460963998,16.595000000000415,28.19500000000009
49600,49600.0,-0.6065254118,-10.2109441,0.12790069675000001,-1.833019995,-0.20409164675,-0.765856955,-47.57553100000001,43.76449595,-128.010789,10.233464360023763,1.997500231439774,143.40770481566818,16.546898550725054,28.18214492753632
49700,49700.0,2.1690704,-9.4034394,0.063244628,-1.07412718,-0.31940307599999995,-0.6204040519999999,-49.3743895,42.5964355,-122.762297,9.652411314864633,1.2850396182119541,139.00715466813878,16.498797101449693,28.169289855072552
49800,49800.0,2.3831177,-7.72439264,-0.69187926,0.14687805199999998,-0.82710878,-0.68537597,-51.4549255,40.8973695,-121.224975,8.114874172636707,1.085015474016359,137.8979101193405,16.450695652174332,28.15643478260878
49900,49900.0,2.76115114,-9.1654538,-2.95368652,0.24786681800000002,-0.85033568,-0.60548098,-53.05328299999999,39.4363405,-120.585633,10.018752442290698,1.074383835486805,137.51676188002702,16.40259420289897,28.143579710145012
50000,50000.0,1.26358338,-7.56134032,-1.99336544,0.222302248,-0.339440914,-0.17213440100000002,-54.510498999999996,38.449859499999995,-120.280455,7.92277958089596,0.4467835248172881,137.53980489556022,16.35449275362361,28.130724637681247
50100,50100.0,4.61858514,-9.0198912,-3.3597412,0.537191792,-0.201162718,-0.019381714,-54.22134499999999,38.497924,-121.00753999999999,10.676871479365051,0.5777073729919154,138.07581698190882,16.30639130434825,28.117869565217475
50200,50200.0,2.96011348,-7.276425,-1.97709354,0.39700012,-0.11722107119999998,-0.063479613,-54.373168500000006,38.172912,-122.19162,8.111621434321261,0.4254474883093817,139.08428427826624,16.258289855072892,28.10501449275371
50300,50300.0,5.2798645199999985,-14.6886414,-4.7031279999999995,0.53314516,-0.23163146399999998,0.49876403399999997,-53.1723025,39.0762335,-124.72076299999999,16.3149293681819,0.7793501794995769,141.10114049128808,16.210188405797528,28.092159420289942
50400,50400.0,-2.45460816,-7.084179600000001,1.6359955,0.35226440400000003,0.36343078799999995,0.50153808,-52.7984625,39.699554000000006,-126.8989575,7.739968574355835,0.7252322640065432,143.06414448590704,16.16208695652217,28.07930434782617
50500,50500.0,4.185711799999999,-10.5789948,-0.09117431599999999,0.542730712,-0.5637817359999999,0.179611205,-50.5195615,40.782165,-128.507992,11.403858781102848,0.8230218324085404,143.978766035587,16.113985507246806,28.066449275362395
50600,50600.0,2.60170592,-10.0268956,-0.732580584,0.5518890359999999,-0.2092620952,-0.084362794,-50.723267,40.223693,-130.56259,10.385348979482114,0.6007305710391564,145.73054012515485,16.065884057971445,28.053594202898637
50700,50700.0,1.0938385,-9.4000948,0.59045716,0.208883672,0.18510132199999998,0.170455932,-50.8255005,39.945221,-131.668855,9.485234053283893,0.32823091680203625,146.6818236036753,16.017782608696088,28.04073913043486
50800,50800.0,1.98878478,-9.3574646,0.6610870120000001,0.25107117,0.42734070799999996,0.390957644,-49.520872999999995,40.512848,-133.3168,9.5897304486781,0.6318515657857683,147.87492530559075,15.969681159420722,28.027884057971097
50900,50900.0,2.760021125,-9.47083625,0.942821485,0.2075500525,0.2937049875,0.31565094,-47.921753499999994,40.748595,-135.20355,9.911089454960313,0.4785407977502231,149.12068532993794,15.921579710145359,28.015028985507325
51000,51000.0,2.415260275,-9.42744825,0.89762495,0.03178405735,0.475334175,0.2032623325,-46.5652465,41.267395,-136.61194,9.777701934457893,0.5186108555729664,150.1138612548204,15.873478260869994,28.002173913043556
51100,51100.0,2.93450155,-10.36117525,1.2046890499999998,-0.14185333249999998,0.467601755,0.1127204875,-45.49942,41.5023805,-137.68616,10.836663762516263,0.5030412814754089,150.83171286215466,15.825376811594634,27.98931884057979
51200,51200.0,2.449676525,-11.55678575,-1.49926755,-0.6979293824999999,-0.530281075,-0.3898200975,-45.883178,41.452789,-136.637115,11.912403110574127,0.9611709064620216,149.97782684923612,15.777275362319275,27.97646376811602
51300,51300.0,-1.15510181,-10.43300975,-0.33029556,-1.789558375,-0.2810020425,-0.754676825,-48.387146,41.3940435,-130.73883500000002,10.513097729479972,1.9638432442922724,145.42270318709998,15.729173913043908,27.96360869565225
51400,51400.0,2.00046155,-10.55450825,-0.9306412,-1.1346893649999998,-0.12361526277499997,-0.5820999149999999,-50.2763447368421,40.47289389473684,-125.92653157894738,10.787207139210363,1.2843297361705472,141.5045742277978,15.681072463768544,27.950753623188486
51500,51500.0,2.3036307999999996,-7.6838645,-0.32879638749999995,0.2163429275,-0.2759475675,-0.631633755,-52.01705136842105,39.303267631578954,-125.15973315789472,8.031334647568167,0.7321345209455545,141.1224432480552,15.632971014493187,27.93789855072472
51600,51600.0,1.85303348,-9.083575699999999,-2.9374039,0.15764160500000002,-0.9831726190000001,-0.318081665,-53.16845047619048,38.127136190476186,-124.68791952380951,9.730088070255,1.0460098277496903,140.8107205118042,15.584869565217819,27.92504347826095
51700,51700.0,2.78618013,-7.64058689,-1.57977139,0.06411285459999999,0.0958358776,-0.21954040600000002,-53.99909985,37.2850033,-124.312131,8.28897434685115,0.2542301675507993,140.5689253245955,15.536768115942456,27.91218840579718
51800,51800.0,4.54663693,-8.323652599999999,-3.16210178,0.47114715100000004,-0.434135439,0.08320770450000001,-53.89389085,37.2052764,-124.7360985,9.99889338029835,0.6528954763694794,140.88275948209272,15.488666666667097,27.899333333333413
51900,51900.0,3.01565552,-9.4720322,-3.28313142,0.47232208200000003,-0.24302825600000003,0.073194883,-53.445358,37.423706,-125.408477,10.488392687937198,0.5411772115352141,141.36571581968485,15.440565217391732,27.886478260869644
52000,52000.0,4.25681917,-11.7155165,-4.23674154,0.148271177,-0.19030456399999998,0.199320983,-52.3601537,37.8570547,-127.3883805,13.181383197265394,0.4184788939345827,142.83772761850784,15.39246376811637,27.87362318840588
52100,52100.0,1.286924741,-8.517350799999999,-0.325445545,0.437060556,0.304620365,0.49982910799999997,-51.3356785,38.62571785,-129.22378849999998,8.646949032128077,0.7317153620469928,144.31254589646255,15.344362318841007,27.86076811594211
52200,52200.0,1.56824339,-9.4573121,0.07617340499999997,0.417881771,0.05364227399999999,0.236289976,-49.8675532,39.015961,-131.700897,9.595669557987437,0.5221087278297065,146.13102790087729,15.296260869565645,27.847913043478343
52300,52300.0,2.815150415,-9.75347755,0.737274915,0.555245986,0.151599123,-0.01751327475000001,-49.1586304,39.02221765,-133.070143,10.188166874280189,0.5827552402239643,147.12930838192077,15.248159420290284,27.83505797101457
52400,52400.0,1.205944035,-9.1776634,0.29327011399999997,0.192797087,0.1281669565,0.07474136425,-49.2155467,38.445817,-134.24301200000002,9.261270799453943,0.247901189984085,148.05896494160626,15.20005797101492,27.822202898550806
52500,52500.0,2.3124824,-9.45544645,0.4720664935,0.301670075,0.1449379005,0.282995607,-48.3872221,38.53080745,-135.3707115,9.745951315545328,0.4383135584186996,148.83274343323762,15.151956521739555,27.809347826087038
52600,52600.0,2.70603486,-9.40200475,0.24491348275,0.2334823595,0.1454231255,0.3628341655,-46.869735299999995,38.95027125,-136.80557199999998,9.793864859784136,0.4559329590385431,149.7656189835098,15.103855072464194,27.796492753623266
52700,52700.0,2.355284815,-9.61951745,0.6333686815,0.112155148,0.21929855399999998,0.2585510175,-45.37712135,39.28978005000001,-137.6159625,9.92773692786571,0.35876961811160024,150.13658179061804,15.055753623188831,27.783637681159497
52800,52800.0,2.247308275,-9.33341455,1.13291318,0.05212707535,0.4829498255,0.238311004,-44.0538035,39.51972965,-138.9763655,9.669397046989687,0.5410963016154602,151.0531701231009,15.007652173913467,27.770782608695733
52900,52900.0,2.6084137000000003,-11.19957,1.82993162,0.0563385,0.0389434828,0.307449342,-42.47200015,39.8724356,-139.49486100000001,11.646569953195524,0.3220288904861869,151.17045442794702,14.959550724638104,27.75792753623196
53000,53000.0,1.24921574,-10.3958344,-1.51763614,-0.523596198,0.024252318999999998,-0.11568298199999999,-42.08740215,39.981385499999995,-138.85490199999998,10.58414521597216,0.5388179287695749,150.5010937813943,14.911449275362743,27.745072463768192
53100,53100.0,0.9499481040000001,-9.9574588,-0.85924071,-1.63253178,-0.410809328,-0.82536318,-43.45031710000001,41.10023579999999,-135.139083,10.054663782669595,1.8751703388457843,147.783125032341,14.863347826087383,27.732217391304427
53200,53200.0,1.2876000863157897,-11.32241089473684,-0.63604174,-1.3250379315789471,0.08299576631578948,-0.6936942684210526,-46.1312868,41.0537722,-129.45953400000002,11.424736407564307,1.4981556896273531,143.43402523267662,14.815246376812016,27.71936231884065
53300,53300.0,1.83903424,-8.168629450000001,-0.5674972385,-0.1807380675,-0.3070556645,-0.8489524970000001,-48.4722904,39.8995968,-126.650998,8.392344060494317,0.9310863480852842,141.35808524057313,14.767144927536654,27.70650724637689
53400,53400.0,0.7675079149999999,-7.90263587,-1.618382255,0.3750602775,-0.54317016,-0.309827421,-50.2981576,38.677062,-126.217652,8.110918967608859,0.7336558526517282,141.26847409250627,14.719043478261291,27.693652173913122
53500,53500.0,3.58458558,-8.468678500000001,-3.3538757000000006,0.21276779399999998,-0.060333254,-0.1022056575,-50.842847578947364,38.251536421052634,-126.70697663157895,9.788947512700258,0.2677432459828874,141.78480122466274,14.67094202898593,27.68079710144935
53600,53600.0,4.55836485,-8.6981125,-2.8385238999999998,0.351623535,-0.412300115,0.029624939,-50.8853152,38.229065000000006,-126.89209,10.224439402365963,0.5430346114865923,141.95910273525018,14.62284057971057,27.667942028985586
53700,53700.0,2.18930055,-8.4191895,-2.6392059000000003,0.4501648,-0.13959503199999998,0.011512755,-51.024475200000005,37.949828,-127.67822240000001,9.135000536112358,0.4914264178642741,142.6374146138336,14.574739130435205,27.655086956521806
53800,53800.0,4.26208495,-12.3708115,-4.69761655,0.22113800000000006,-0.05863189499999999,0.241615295,-49.7277836,38.6483764,-128.912964,13.914162241287515,0.4348742137559466,143.4752338560285,14.526637681159842,27.642231884058045
53900,53900.0,-0.21268465000000006,-7.6111375,0.9957961999999999,0.40382385,0.479858415,0.49354555,-48.6486818,39.0112302,-131.091616,7.738530112497691,0.8048981001076718,145.16790431166064,14.47853623188448,27.62937681159428
54000,54000.0,2.55202485,-9.916161,0.82820129,0.500762935,-0.011222835000000014,0.27569580000000005,-47.02667279999999,39.6749874,-133.61145,10.302291340141494,0.6150529971667364,147.0975492406654,14.430434782609115,27.616521739130512
54100,54100.0,1.843338,-10.076569000000001,0.2410202,0.60675812,0.044166563500000006,-0.0012741089999999955,-46.489562,39.226989200000006,-135.787048,10.255490621668294,0.6156767902663104,148.7891430442137,14.382333333333756,27.603666666666737
54200,54200.0,1.697648665,-9.134330175,1.186544075,0.0845161425,0.47517166200000005,0.0034675600999999963,-46.336059000000006,38.9071654,-136.58142,9.370661747020181,0.4845865010175279,149.38305377562642,14.334231884058392,27.590811594202968
54300,54300.0,2.15506669,-9.66608825,0.30284728804999994,0.31002198200000003,0.1299690255,0.25593795350000004,-45.48431280000001,38.7200928,-138.197328,9.914404660916926,0.4236757198663927,150.55442788090383,14.28613043478303,27.577956521739203
54400,54400.0,2.656235505,-9.102610199999999,0.62732697,0.125788114,0.2361770605,0.159693145,-44.6282968,38.7554928,-138.734744,9.503174107330477,0.312732676185205,150.80123636868325,14.238028985507665,27.56510144927543
54500,54500.0,1.507914725,-9.4595275,0.99160387,0.10826339630000001,0.210616306,0.2861351015,-43.678589,39.150086,-139.44244799999998,9.631078167664311,0.3718232438018698,151.2770812381004,14.189927536232304,27.55224637681167
54600,54600.0,2.1918129200000003,-9.55026325,0.993936147,0.09926529125,0.46281510200000003,0.337537385,-42.294311,39.1439824,-139.99359199999998,9.84884380798002,0.5814753309025086,151.39122484305227,14.14182608695694,27.539391304347898
54700,54700.0,3.31356277,-10.61621965,1.66090321,-0.0646202078,0.059553526399999994,0.24006271350000002,-40.680541999999996,39.74304179999999,-140.567014,11.246435114517018,0.2650560437730569,151.63618911105237,14.09372463768158,27.526536231884126
54800,54800.0,1.4192046999999999,-10.9335784,-1.85426328,-0.68828736,-0.301730352,-0.39413757200000005,-41.571044,39.5367424,-139.546202,11.188651648452089,0.85259891641644,150.87905744645582,14.045623188406214,27.51368115942036
54900,54900.0,-0.4228912400000001,-10.4298371,-0.184552004,-1.86029356,-0.395898436,-0.7961669920000001,-44.1549672,40.33722,-132.94799799999998,10.44280870354233,2.0622570305332824,145.7812112676661,13.997521739130852,27.500826086956593
55000,55000.0,2.09341428,-10.5021396,-0.34807129000000003,-1.11141356,0.0709075904,-0.7024291899999999,-46.27288825,40.0109864,-128.00400100000002,10.728631573182758,1.3200598864733741,141.87003334175782,13.949420289855489,27.487971014492828
55100,55100.0,1.83507692,-7.3571137,-1.011505108,0.07167663549359997,-0.444897464,-0.744607536,-48.9543155,38.07029745,-126.71455300000001,7.65873493194813,0.8775345732283546,141.0763216658621,13.901318840580128,27.475115942029056
55200,55200.0,2.19038086,-8.0784883,-2.4611969200000003,0.07337646619999999,-0.5663391179999999,-0.194082642,-50.2200315,37.2187052,-126.2823471,8.729670406871287,0.6094719348644724,140.90607691058247,13.853217391304765,27.46226086956529
55300,55300.0,3.7440817857142856,-7.470568014285713,-2.670756757142857,0.131877356,0.07863943971428572,-0.03809465828571429,-50.38574275,36.7110445,-125.82778940000001,8.773761088482193,0.16214915363355514,140.42482320651334,13.805115942029405,27.449405797101523
55400,55400.0,5.30068658,-10.1229004,-4.20895998,0.493948364,-0.46769104200000006,0.0843750002,-50.24932825,36.812896,-126.63932785,12.18367139906676,0.6863245206706651,141.13021392748718,13.75701449275404,27.43655072463775
55500,55500.0,-0.8464233319999998,-7.62790226,0.216003418,0.526757812,0.6710693480000001,0.3283233680000001,-50.3281405,36.4401235,-127.9040549,7.764667038761692,0.9331023268969192,142.19801471342106,13.708913043478676,27.423695652173986
55600,55600.0,4.07701112,-10.0888977,-0.738568122,0.223587034,0.95656128,0.315112312,-48.45909085,37.596971,-129.525679,10.983244150895052,1.0495235444724682,143.31353502732432,13.660811594203315,27.41084057971021
55700,55700.0,2.21791074,-9.524103,-0.572412092,0.46560973200000005,0.550061048,0.6033691400000001,-47.07740795,37.82035795,-131.65405149999998,9.898279096680175,0.9470695942238796,144.84305686723786,13.612710144927952,27.397985507246453
55800,55800.0,2.30051272,-9.667034800000001,0.99842832,0.6028167799999999,-0.098904418,0.270794678,-46.07299925,37.7671054,-133.80462699999998,9.989484491769039,0.6710402651242249,146.46766439788064,13.56460869565259,27.38513043478268
55900,55900.0,1.6907083842105262,-9.373656315789473,0.3117458915789474,0.29158019842105265,0.24059657157894734,-0.07073011042105264,-45.9814449,37.4269109,-135.130766,9.537662972778127,0.3946582725760691,147.56495686995433,13.516507246377227,27.372275362318913
56000,56000.0,1.851844035,-9.504529400000001,0.7318946829999999,0.26166076850000003,0.289766685,0.19329681350000003,-45.3385917,37.07885755,-136.6733585,9.711932107130648,0.4357637499795307,148.69463784548387,13.468405797101864,27.35942028985514
56100,56100.0,2.1759597999999998,-9.74826505,0.5344345149999999,0.26000977,0.1695991515,0.33045730900000003,-44.0414432,37.41638225,-137.51808350000002,10.00263769287918,0.4536918604138791,149.1673051249915,13.420304347826502,27.346565217391372
56200,56200.0,2.33559189,-9.6426844,0.858905025,0.1599288935,0.322682953,0.2085868855,-43.00956725,37.6045997,-138.621981,9.958696023357264,0.41745406065316776,149.93336408233546,13.372202898551139,27.333710144927608
56300,56300.0,2.3133865,-9.27996505,0.9067298655,0.025285339249999997,0.47933121,0.2069870015,-41.97853155,37.63473505,-139.45884850000002,9.60824999058473,0.5228755758708709,150.42414845881692,13.324101449275775,27.320855072463843
56400,56400.0,2.86931767,-9.9450049,1.88361971,-0.041667938450000004,0.147127532,0.27048187,-40.3945924,38.2055658,-140.189212,10.523708237803069,0.31460613114889346,150.81270663897638,13.276000000000415,27.30800000000007
56500,56500.0,1.705619065,-12.01198315,-1.501834895,-0.3089996395,-0.4189071635,-0.1766693125,-40.391781263157895,38.16664836842105,-139.87948631578948,12.236517924248565,0.5651033023060668,150.51417353927837,13.227898550725053,27.295144927536303
56600,56600.0,0.04685362000000004,-9.551277,-0.1147628792,-1.92899934,-0.25144043400000005,-0.86158294,-42.582855200000004,39.22515755,-134.134446,9.578217076183313,2.1297953670286827,146.0974862935613,13.179797101449687,27.28228985507253
56700,56700.0,1.49881284,-11.1120573,-0.257569886,-1.2515991000000002,-0.11104126199999999,-0.7421646199999999,-44.8705301,39.46464535000001,-128.4169005,11.2171295671281,1.460751642612976,141.639822438083,13.131695652174326,27.269434782608762
56800,56800.0,1.37718813,-7.9821181,-0.878512575,-0.036231994900000015,-0.247184751,-0.683786022,-47.33062705,38.1494906,-126.3911449,8.149728203144177,0.7405459361674049,140.25083015175372,13.083594202898965,27.256579710144997
56900,56900.0,1.23233794,-8.3055774,-2.27791599,0.194070436,-0.54311066,-0.234562685,-48.972931,37.27577205,-125.7951375,8.705710341189075,0.6270279520154715,140.0442244273096,13.0354927536236,27.243724637681225
57000,57000.0,3.2981766,-7.9338820000000005,-2.29395901,0.08232269290000001,0.245291127,-0.139752201,-49.30923445,37.060164,-125.812225,8.896690126932912,0.29830860235844114,140.12023318695552,12.987391304348238,27.230869565217453
57100,57100.0,4.37694502631579,-8.836347526315791,-3.1938766000000003,0.4795114684210526,-0.34378292736842103,0.12247105736842108,-49.24781785,37.241516499999996,-126.15241950000001,10.366976189253904,0.6026985812496389,140.4518465415996,12.939289855072875,27.218014492753692
57200,57200.0,2.33774185,-9.149112625,-2.52098475,0.4198036225,0.10009384,0.16064453425,-49.19380225,37.21099829999999,-126.84761100000001,9.806179434938834,0.4803724598545697,141.04988519366628,12.891188405797513,27.20515942028992
57300,57300.0,4.50808725,-11.1246335,-3.314968175,0.08716965000000003,0.2945098825,0.25039673,-47.8652184,38.500747600000004,-128.02543725,12.510164518745295,0.6200828590254154,141.99971890336215,12.84308695652215,27.19230434782615
57400,57400.0,0.4165130599999999,-9.131702,-0.12014159800000003,0.5527466,0.28928528000000003,0.601882912,-46.71608005,38.79440325,-130.67443500000002,9.167625954588358,0.8684356086902583,144.09452504893576,12.794985507246787,27.179449275362387
57500,57500.0,0.91762696,-9.7486788,0.107781982,0.5205719,0.051300048400000006,0.21348267,-45.32267233333333,39.109294,-132.21435333333332,9.800138572958607,0.5656298824687394,145.13567906240485,12.746884057971425,27.166594202898608
57600,57600.0,2.80233762,-9.6296934,-0.11847533880000001,0.38976746,0.297808838,-0.0538879424,-45.16807445,38.93142690000001,-133.9141835,10.029953110385254,0.501710060194026,146.5907302643795,12.698782608696062,27.15373913043485
57700,57700.0,2.05128172,-9.53009,0.7566162000000001,0.153698728,0.257962038,0.20539246,-44.7576135,38.5887145,-135.1386265,9.780817800575782,0.364336872755696,147.4953978931083,12.6506811594207,27.14088405797108
57800,57800.0,2.23898616,-9.461859,0.6500701839999999,0.28323364,0.22728271600000002,0.37540284,-43.580779799999995,39.1552733,-136.25518499999998,9.74548125269713,0.5226422318484286,148.3169263972199,12.602579710145335,27.128028985507306
57900,57900.0,2.620803795,-9.196642,1.028768965,0.1559936495,0.1715682965,0.320498645,-42.3876965,39.4265745,-137.206267,9.618231634379496,0.3962472124793573,148.91856393243341,12.554478260869976,27.115173913043538
58000,58000.0,1.92013241,-9.559663,0.65228194,0.101983643,0.290723418,0.22781296199999998,-41.51397720000001,39.65164100000001,-137.9393,9.772622940482576,0.3835960182144881,149.4085829322029,12.506376811594613,27.102318840579766
58100,58100.0,3.31325529,-10.971339725,1.794792955,-0.039482117250000004,0.02371749920000002,0.195116428,-40.3707886,39.974976899999994,-137.519533,11.600637404095291,0.2071769149832498,148.79358035377814,12.458275362319247,27.089463768116
58200,58200.0,1.133515135,-10.85037215,-2.5372665100000003,-0.7442100439999999,-0.48521576299999997,-0.414171599,-41.4952079,40.0975044,-135.94101,11.203833500084551,0.9851614670007544,147.6813120035309,12.410173913043884,27.076608695652236
58300,58300.0,-0.536972811,-10.614600999999999,-0.07668685800000008,-1.799678005,-0.210267638,-0.78967436,-44.0890498,40.0025941,-130.26306200000002,10.631489478925856,1.9768163836301609,143.22226764467501,12.362072463768525,27.063753623188468
58400,58400.0,1.8346139789473683,-9.492294526315789,-0.517149272631579,-0.9689113947368422,-0.04961114168421052,-0.65433462,-46.2535098,39.1423033,-125.488891,9.68237769788449,1.1708265022400648,139.35241988042034,12.313971014493161,27.050898550724696
58500,58500.0,1.59350893,-7.40787203,-0.97931214,0.06134186059999998,-0.688526915,-0.6180587740000001,-48.022156,37.583771500000005,-123.9488232,7.643059564904668,0.9302391770658004,138.13828907654374,12.265869565217798,27.03804347826093
58600,58600.0,1.47822723,-8.8311004,-2.7714813,0.252024845,-0.6731857440000001,-0.0649749758,-49.171447799999996,37.0130928,-124.044344,9.378629737723918,0.7236814384566389,138.473284589405,12.217768115942436,27.025188405797163
58700,58700.0,3.41752628,-8.255772,-2.12960512,0.42481233,0.16262207499999998,-0.0345016483,-49.20461515789474,37.04119178947368,-124.67177578947368,9.186632383627984,0.4578002329446927,139.05466416916423,12.169666666667073,27.012333333333398
58800,58800.0,4.43422535,-9.1841337,-4.65321194,0.158177181,-0.6237518129999999,-0.0908523573,-49.130247999999995,36.87400675,-124.6322625,11.21067357209434,0.6520782821902171,138.94860038431335,12.12156521739171,26.999478260869626
58900,58900.0,0.02219085400000009,-10.8962261,-0.6483001650000001,0.6945373699999999,0.202992251,0.626379398,-48.38523875,37.27912875,-126.37863125,10.925460265243759,0.9686646346508434,140.3656810044209,12.073463768116348,26.986623188405858
59000,59000.0,0.7633163479999999,-7.611744740000002,1.1438720759999998,0.16594848499999998,1.31002199,-0.160847476,-47.7378835,37.3546605,-128.19443,7.800045102256236,1.3305653244047837,141.80299658130562,12.025362318840985,26.973768115942093
59100,59100.0,3.35012744,-11.349147,0.23425292925,0.52920072,0.517417141,0.6408737170000001,-46.042252000000005,37.61482225,-130.36536999999998,11.837567221412856,0.979508482073826,143.28295110611964,11.977260869565622,26.96091304347832
59200,59200.0,1.633006285,-9.8457151,1.245381905,0.5748558069999999,-0.149442289,0.34839860200000006,-45.05577074999999,37.8551485,-132.6332125,10.058066366851076,0.6886333577083744,145.10216664414386,11.92915942029026,26.948057971014556
59300,59300.0,2.0578040950000003,-9.08196115,0.4182540945000001,0.3450805535,0.4044868435,-0.021076965300000004,-44.3573,37.386323,-134.7965275,9.322497871488132,0.5352052072358251,146.74968769908432,11.881057971014895,26.935202898550788
59400,59400.0,1.80347364,-9.38481855,1.459553495,0.17559356750000002,0.250718687,0.160221103,-43.7541965,37.482453,-135.8528175,9.667520287039348,0.34552249520093825,147.56477653471075,11.832956521739534,26.922347826087016
59500,59500.0,1.580093395,-9.46748,0.575607295,0.1636566175,0.22893829100000002,0.1495651235,-43.074036,37.24517925,-136.6657275,9.615811792911934,0.3187532050961279,148.05447346907062,11.784855072464174,26.90949275362325
59600,59600.0,2.04127958,-9.42420235,1.1644630150000002,0.0923469567,0.36688461,0.11782913,-42.20008925000001,37.43247975,-137.41378999999998,9.7128917274695,0.3962841762066199,148.54154931444538,11.736753623188811,26.896637681159483
59700,59700.0,2.3634796000000002,-9.552841,1.2699280000000002,0.037368774,0.36534120000000003,0.30020142,-41.1060335,37.547683,-138.12714,9.922475704988203,0.4743326999667211,148.9249957342186,11.688652173913448,26.88378260869571
59800,59800.0,2.7261963,-9.677338,1.2567596,0.0075531006,0.47293090000000004,0.3225708,-39.2589555,37.84942625,-139.2662025,10.13224860159727,0.5725142849887012,149.56310128135422,11.640550724638086,26.870927536231946
59900,59900.0,2.914154,-11.307785,0.25958252,-0.16609192,-0.24931335,0.023239136,-38.6058805,38.53416425,-139.5805375,11.680140334201065,0.3004725109216073,149.86010920801576,11.592449275362721,26.858072463768174
60000,60000.0,1.2944641000000001,-9.342148,-1.338562,-1.6233673,-0.14811707,-0.67025757,-40.02685525,39.281845,-135.40802250000002,9.525918054861526,1.7625280897838138,146.56345575767142,11.54434782608736,26.845217391304413
60100,60100.0,1.7649384,-11.895569,-0.107940674,-1.4252319,0.039367676000000004,-0.725647,-42.09823575,39.64958175,-130.1708225,12.026272098146588,1.5998122862699398,142.43894823244744,11.496246376811992,26.83236231884064
60200,60200.0,1.2453918,-8.213287,-0.39283752,-0.29605103,-0.056503295999999995,-0.8023529,-44.54841500000001,38.8042445,-128.3237475,8.316453895561256,0.8570933502024938,141.27051299707296,11.448144927536633,26.819507246376872
60300,60300.0,0.16787872550000002,-8.2186023,-0.73126068,0.332402038,-0.547210677,-0.4276901275,-46.8547825,37.652969,-127.2312175,8.254095241314875,0.7705308310192175,140.71577798084655,11.40004347826127,26.8066521739131
60400,60400.0,3.7738396,-8.7263665,-3.374699375,-0.10931777975,-0.2895347573,-0.2061683675,-47.631073,37.346268,-126.602935,10.089833187713301,0.3754918342958079,140.32738892045006,11.351942028985908,26.79379710144933
60500,60500.0,3.7676216,-7.84450988,-1.3475326250000002,0.3430976865,-0.22587280350000002,0.09412002400000001,-47.83461705263158,37.28533236842105,-127.6231436842105,8.806983154877823,0.4224951772116175,141.3011715313111,11.303840579710545,26.780942028985567
60600,60600.0,4.5795532849999985,-8.55415835,-3.88221894,0.384326935,-0.6928924565000001,-0.136391446,-47.8701786,36.925049200000004,-127.2085568,10.454282946206003,0.8041205347887166,140.8439966424689,11.255739130435183,26.7680869565218
60700,60700.0,0.871473692,-13.0594393,-3.279898815,0.6831855625,-0.16931228850000002,0.7158737075,-47.181090999999995,37.213440000000006,-129.18121599999998,13.519099979229257,1.008789487638302,142.47362696376462,11.20763768115982,26.75523188405803
60800,60800.0,-1.84864268,-6.15032212,3.48216627,0.33180618,0.948844935,0.17007369649999998,-45.825806,37.723997999999995,-130.79620599999998,7.328185269925274,1.0313291682605097,143.63432681093389,11.159536231884458,26.742376811594262
60900,60900.0,4.7738388999999986,-11.8403837,0.357977295,0.430665587,-0.016021727899999998,0.470222473,-43.790893200000006,38.2324216,-133.00628400000002,12.775110313821768,0.6472666143511528,145.15535100109543,11.111434782609095,26.729521739130487
61000,61000.0,1.91899877,-10.1403779,0.9244491635,0.60825347,0.189262392,0.0041595461,-43.60321079999999,38.161925200000006,-134.41344999999998,10.368524282752297,0.6372017237536207,146.37127635478947,11.063333333333732,26.71666666666672
61100,61100.0,0.55837709,-8.818421899999997,0.93198698,0.18203735699999998,0.261155697,-0.048568726,-43.2571426,37.391358399999994,-136.22498000000002,8.885621811067868,0.3239614238988241,147.7381625589505,11.015231884058368,26.703811594202953
61200,61200.0,2.10802305,-9.2845737,0.73818207,0.25969696200000003,0.393786622,0.339938358,-42.1704104,37.4090576,-137.374574,9.549658125190463,0.5816001213609192,148.4910972166727,10.967130434783009,26.69095652173918
61300,61300.0,2.39029237,-9.3789016,0.35342560700000003,0.29047852,0.200329585,0.42121125200000004,-40.7504274,37.5170898,-138.185428,9.685874733048546,0.5496002833221956,148.87359891576602,10.919028985507646,26.678101449275413
61400,61400.0,2.04948112,-9.5195572,1.18158109,0.07615509000000001,0.37641906399999997,0.250138851,-39.060364,37.7789308,-139.645078,9.80912584980348,0.4584757071023664,149.84563188859332,10.870927536232283,26.66524637681165
61500,61500.0,2.60781094,-9.7206727,1.4550003299999998,-0.083425906,0.48114471600000003,0.15042266899999998,-37.4420164,38.16741939999999,-139.608156,10.169216144088278,0.5113933326185114,149.49625368894152,10.82282608695692,26.652391304347876
61600,61600.0,2.010457575,-11.94996925,-1.457604965,-0.5260414154999999,-0.32472916,-0.44223556700000005,-37.59826680000001,38.4890746,-139.38751200000002,12.209893759576785,0.7607239930893119,149.41205524767705,10.774724637681556,26.639536231884108
61700,61700.0,-0.6494489285714286,-9.613892,-1.06304492,-1.9672982428571428,-0.3792811771428571,-0.9840545714285714,-40.0567626,40.089416799999995,-133.83056399999998,9.715983314454904,2.2335164148145945,145.33562492862632,10.726623188406194,26.626681159420343
61800,61800.0,2.770766405,-11.1985829,-0.6753326239999999,-1.045902285,-0.2101203905,-0.6533447275,-42.4298096,40.4956052,-128.283084,11.574292543635506,1.260071876738167,141.0566832931266,10.678521739130831,26.61382608695657
61900,61900.0,1.284655735,-7.42095411,-0.7602378875,0.1875526445,-0.5350975,-0.609488671,-44.8016364,39.842529600000006,-127.0794672,7.573143846060242,0.8394917673931783,140.5127825735654,10.630420289855467,26.600971014492806
62000,62000.0,0.71974487,-8.1622896,-2.97104796,0.120895382,-0.6239715579999999,-0.291131592,-46.4593504,39.6041874,-126.86554,8.717872799595831,0.6994063678113451,140.79016358461726,10.582318840580106,26.588115942029038
62100,62100.0,3.247908005,-7.8505959,-2.09201432,0.030377196119999998,0.0794883724,0.230291749,-46.228027600000004,39.794921200000005,-127.322388,8.751229382348656,0.25160727087351464,141.1798189747749,10.534217391304745,26.575260869565266
62200,62200.0,5.340201685,-9.76119615,-3.470176715,0.5625022749999999,-0.408382419,0.1345794655,-45.201415600000004,40.586243200000006,-127.75513000000001,11.656965539423895,0.7127501566510246,141.463079295433,10.48611594202938,26.562405797101498
62300,62300.0,-0.8237991459999999,-7.399849000000001,-0.773826577,0.43498230000000004,0.734992985,0.25199889499999995,-45.4692844,40.56846615,-128.663179,7.577753709293224,0.9007907692348041,142.36392885289874,10.438014492754018,26.549550724637733
62400,62400.0,5.9586792000000015,-11.452942,-2.2390747,0.28931427,1.1190185499999998,0.22403717,-43.54618614285715,41.59851019047619,-131.31445333333332,13.173961497929161,1.1950773900771967,144.465345613807,10.389913043478655,26.53669565217396
62500,62500.0,0.5634002650000001,-9.0645096,-0.38653181600000003,0.690576173,0.0914909372,0.719920345,-41.7858875,42.043687,-133.48106299999998,9.179757864398061,1.0082063517291628,146.05138988834733,10.341811594203293,26.523840579710196
62600,62600.0,1.38706668,-9.650109825,0.98344265,0.5561332695000001,0.1334403988,0.131546785,-40.52284195,42.1311945,-135.4346485,9.807990637895877,0.5869769088004737,147.51183497691838,10.29371014492793,26.510985507246428
62700,62700.0,1.9340784117647056,-9.352009411764708,-0.2836339629411765,0.32374483411764704,0.10723338092941176,-0.11638147941176473,-40.65608920833333,41.91684708333333,-137.157055,9.556601181860467,0.3711398381997556,149.07045970994264,10.24560869565257,26.498130434782663
62800,62800.0,2.38419342,-9.5970097,0.6786804120000001,0.151467896,0.382809455,0.149566649,-39.86892675,41.841049100000006,-138.182985,9.912995689266381,0.4380660698257966,149.78244993675165,10.197507246377203,26.48527536231889
62900,62900.0,1.848008005,-9.7682506,0.409867094,0.2926651025,0.010876464849999998,0.22280731399999998,-38.913498499999996,41.9953919,-139.259943,9.950345436393176,0.3683118180972988,150.56968460400057,10.149405797101842,26.472420289855126
63000,63000.0,1.81467283,-9.35141895,0.7521812575,0.17026824850000002,0.22797775350000002,0.28049164050000003,-37.8733842,42.2763828,-139.824143,9.556090978386298,0.4020763819917039,150.9056630389646,10.101304347826481,26.459565217391358
63100,63100.0,2.274835610526316,-9.32658047368421,0.4650364894736842,0.04320245157894737,0.4507349952631579,0.23353255315789476,-36.45439130000001,42.2776035,-140.95932050000005,9.612378286036943,0.5100727732730025,151.61093965337963,10.053202898551117,26.446710144927586
63200,63200.0,3.150098305263158,-10.150246947368421,1.4615229894736843,0.008336920421052635,0.2519177884210526,0.3254322226315789,-34.6489725,43.3460998,-140.814435,10.728425441238835,0.4134520502249591,151.3543997416304,10.005101449275754,26.433855072463817
63300,63300.0,0.8019287124999999,-11.6894248,-0.96745755,-0.21674423350000002,-0.5002441445,-0.307590484,-34.938125750000005,43.965073,-140.3181425,11.765269501839747,0.6280018422689748,151.1383676101968,9.957000000000392,26.421000000000053
63400,63400.0,-1.076513715,-9.812484399999999,-0.500350954,-1.85549388,-0.1519508335,-0.83452301,-37.85629235,45.50323505,-135.08132700000002,9.887241803777519,2.0402320511335765,147.48174621967726,9.908898550725027,26.408144927536284
63500,63500.0,1.794560285,-10.92172205,-0.36177826009999997,-1.29399486,0.3057983265,-0.60526884,-40.58853155,46.50566115,-128.658526,11.082428413333984,1.4622268544272836,142.7002083033259,9.860797101449666,26.395289855072512
63600,63600.0,1.63588558,-7.727261200000001,-0.4060119600000001,0.0559051512,-0.390780632,-0.7166992,-43.82171755,45.5717455,-126.298367,7.917095216038938,0.8272504973633497,141.23899223844248,9.812695652174305,26.382434782608748
63700,63700.0,1.363605525,-7.740421299999999,-2.226501475,0.36360551,-0.4908676175,-0.2928886375,-46.062165500000006,44.9443051,-126.0179909,8.171467791795532,0.6784066852478118,141.50018201416574,9.76459420289894,26.36957971014498
63800,63800.0,3.2931534200000003,-8.276613000000001,-2.68397062,0.175746156,-0.1563156135,0.19516449,-46.3477325,44.933166799999995,-126.25617965,9.304106307477342,0.3097405209312267,141.80172875650263,9.716492753623578,26.35672463768121
63900,63900.0,5.70004117,-10.2630801,-3.57138213,0.173086548,-0.35061950700000005,-0.099378965,-46.0444625,45.20278820000001,-126.7254615,12.272545706204017,0.4122625413638258,142.20665841049598,9.668391304348217,26.343869565217442
64000,64000.0,-1.2889328020000002,-10.636155300000002,-0.276364905,0.781466674,-0.03556747099999999,0.6749115,-46.3227846,45.0900269,-128.64478799999998,10.818054601992298,1.062049570216728,143.9739069944263,9.620289855072851,26.331014492753674
64100,64100.0,0.7557746749999998,-7.6281381999999995,1.46003419,0.22533874550000002,1.007275381,-0.0820175171,-44.903717799999995,45.896148499999995,-129.76638599999998,8.019323785837358,1.0354458960892836,144.783021554104,9.57218840579749,26.31815942028991
64200,64200.0,3.7975464999999997,-11.3006658,0.71232452,0.491757961,-0.06406707915000001,0.6280380045,-43.200041473684216,46.17791452631578,-131.64175263157892,11.949883380399005,0.8105726905885027,146.04184183547164,9.524086956522128,26.305304347826127
64300,64300.0,1.7531952000000002,-10.079080000000001,0.687179572,0.608572384,-0.11956176800000001,0.038574219,-42.3585511,46.294860799999995,-133.39294700000002,10.261727932212905,0.6237106418095016,147.41486070657723,9.475985507246763,26.29244927536236
64400,64400.0,0.92504884,-8.9547636,0.8246093760000001,0.154766846,0.31527405000000003,-0.082873534,-42.4792482,45.4876717,-134.83810300000002,9.048112596529073,0.3628770372330697,148.5090580872991,9.427884057971402,26.279594202898604
64500,64500.0,2.0515198,-9.476224199999999,0.90529478,0.2734375,0.197671508,0.24608764800000002,-41.64821071428572,45.71903800000001,-135.68856428571428,9.738266278555267,0.41806875980083785,149.11807509875769,9.379782608696038,26.26673913043483
64600,64600.0,2.114967275,-9.314435000000001,0.733681502,0.23774719649999998,0.0606231705,0.273996729,-40.370789,45.65231350000001,-136.531983,9.579748979191788,0.3687408027250267,149.51561965625748,9.331681159420675,26.253884057971057
64700,64700.0,1.75008697,-9.55163645,1.139086945,0.095861055,0.27074966300000003,0.2438972475,-39.2173769,45.896606299999995,-137.657011,9.777445644399213,0.3771742931647879,150.31290858881917,9.283579710145316,26.24102898550729
64800,64800.0,1.90355222,-9.593298,0.60601196,-0.0054534909999999995,0.49317934,0.234371952,-37.6649477,45.7470706,-138.003536,9.799239270862456,0.5473196692816903,150.18804860663383,9.235478260869954,26.228173913043523
64900,64900.0,3.409388035,-10.39709155,1.39149246,-0.08768844455,0.2018852264,0.293922426,-35.958861999999996,46.2579341,-138.08243199999998,11.030210669615538,0.37871125782653137,149.99865707103066,9.18737681159459,26.21531884057975
65000,65000.0,1.35516204,-11.24919285,-2.421509565,-0.7626457145000001,-0.25145111,-0.4060111965,-36.0113525,46.4422609,-136.80938999999998,11.591122091357743,0.9085990899229466,148.89770105656882,9.139275362319227,26.202463768115987
65100,65100.0,-0.352981566,-10.10446455,0.4108345020000001,-1.799999995,-0.03232116715,-0.80213165,-38.1272887,47.4765,-130.086672,10.12599102720526,1.9710282665131948,143.63268963888197,9.091173913043864,26.18960869565222
65200,65200.0,1.816698445,-10.1782602,-0.5524139415,-0.93116,-0.3091316255,-0.5398140060000001,-40.630492700000005,47.2572314,-124.16931100000001,10.357920795343713,1.1215575754168678,138.93219905383123,9.0430724637685,26.176753623188446
65300,65300.0,0.7967140359999999,-8.078785100000001,-0.9970215,0.07241897309999999,-0.6020805495,-0.4982131925,-42.858124100000005,46.1070245,-122.1940615,8.182843307542504,0.7877979113641261,137.4558295042315,8.994971014493139,26.163898550724678
65400,65400.0,0.72716522,-8.3440079,-1.99444274,0.34395293899999996,-0.274134824,-0.26833038600000003,-43.9419552,45.8200067,-122.33001750000001,8.628188607905164,0.5152793865473045,137.82244095186604,8.946869565217774,26.151043478260913
65500,65500.0,4.016082925,-8.258175,-2.229797375,0.08397674625,0.10594940525,-0.1629180925,-44.4432065,45.8073423,-122.98385800000001,9.451504739167936,0.21694399581048127,138.5588217802775,8.898768115942413,26.138188405797145
65600,65600.0,5.46732486,-9.7764618,-3.93650508,0.117483517,-0.605960084,-0.31744384800000003,-44.8268126,45.782013,-123.274231,11.87357926901222,0.6955146281229867,138.93155303282649,8.85066666666705,26.125333333333373
65700,65700.0,0.56614992,-8.6660246,-1.31365666,0.56893616,-0.11402283,0.40437928,-44.8864745,45.6240856,-123.7962335,8.784672029722254,0.7097814598965064,139.36259010074184,8.802565217391688,26.112478260869608
65800,65800.0,4.97388296,-12.4146298,-4.867605640000002,0.0497314454,0.1122344972,0.11079101599999999,-42.7525327,46.545715200000004,-125.31631499999999,14.25359503619558,0.3203862523276244,140.35122283888887,8.754463768116326,26.09962318840584
65900,65900.0,-0.14325179950000005,-8.2129887,0.4239372100000001,0.517857361,0.262122347,0.6892814635,-41.5551755,47.0204176,-127.086183,8.269951940590591,0.9027235620406888,141.73466317745994,8.706362318840963,26.086768115942068
66000,66000.0,1.74559178,-9.7460557,0.303863527,0.6290672325,-0.4202400215,0.12923202550000001,-39.5378112,47.3117064,-129.24255,9.914419537832943,0.7688709847148552,143.1966239015209,8.6582608695656,26.073913043478303
66100,66100.0,2.0727638500000003,-9.5852856,-0.065259552,0.3759094205,0.033199310905,-0.028379822250000002,-39.389342299999996,47.5965875,-131.853487,9.807745806610802,0.3876396956910882,145.61023848932226,8.610159420290238,26.061057971014534
66200,66200.0,1.91935883,-9.406971400000002,0.603083806,0.212023927,0.2477363585,0.228345488,-38.9843752,47.3429869,-133.05603100000002,9.619747261839178,0.3992498047700754,146.50959125971926,8.562057971014875,26.04820289855077
