Unnamed: 0,st,ax,ay,az,gx,gy,gz,mx,my,mz,AccTotal,GyrTotal,MagTotal,lat,lng
15000,15000.0,3.273277275,-10.88551325,-0.568225855,-0.191928865,-0.3616943375,0.06504440375,-39.541016,42.3712156,-136.70593200000002,11.392280601816372,0.4280795254175889,148.48358997365028,33.19,32.63
15100,15100.0,1.9196548925,-9.448395,-0.8902434950000001,-1.8958168000000002,-0.07941055250000001,-0.72884369,-41.3140872,43.0059814,-131.945494,9.708237460691741,2.0331561863021896,144.79723337666238,33.141191176470585,32.61695588235295
15200,15200.0,2.942581175,-11.62172725,-0.00019836000000000853,-1.326435075,-0.487133025,-0.6231155425,-43.964844,42.666930799999996,-124.6173072,11.992142040740395,1.5461528715095032,138.86288264332637,33.09238235294117,32.60391176470589
15300,15300.0,1.2980575,-8.43534075,-0.7654419025,-0.18766403,-0.17687224750000002,-0.922721875,-46.91070560000001,41.1584468,-122.19818400000001,8.573713022056545,0.9605060909577698,137.21200184471076,33.04357352941176,32.59086764705884
15400,15400.0,0.6426544375000001,-7.25590525,-1.083271025,0.37187195,-0.43866729,-0.413261405,-49.480284000000005,39.659425,-122.2781372,7.366182755404399,0.7103691757592867,137.7429462829268,32.994764705882346,32.57782352941178
15500,15500.0,4.060378999999998,-8.5454825,-2.8130874500000003,0.2738571175,-0.1960487325,0.140945435,-49.54315220000001,39.926758,-122.72766399999999,9.871105514508528,0.36749243068353005,138.24170516122007,32.945955882352926,32.564779411764725
15600,15600.0,4.917801,-9.12577475,-3.0974007,0.4424400425,-0.2232208275,-0.07184600875,-49.38468949999999,39.87617475,-123.377225,10.819947971166243,0.504109535222416,138.7476393379128,32.89714705882352,32.55173529411767
15700,15700.0,2.1232692,-6.997485952380952,-1.8612321952380952,0.4359298,-0.15405055285714284,-0.061783561904761884,-49.95008333333333,39.71746666666667,-123.63622733333334,7.577786169825401,0.4918983328902881,139.13452320694523,32.84833823529411,32.53869117647061
15800,15800.0,5.4880856666666675,-15.207315,-6.0143709,0.4909159523809523,-0.3884611476190476,0.6672072485714285,-47.91336075,40.635301,-125.592805,17.27828641000822,0.9348637419091256,140.43000180462138,32.799529411764695,32.52564705882356
15900,15900.0,-1.907236485,-7.047784599999999,2.80209659,0.27343903,0.5267265489999999,0.18152847100000002,-47.53303675,40.64064000000001,-127.43873549999999,7.869870720772988,0.6543324549278955,141.9568742072812,32.75072058823528,32.5126029411765
16000,16000.0,3.95850226,-11.137555,0.6112854,0.433438108,-0.117858886,0.239270016,-45.762634000000006,40.99235525,-129.05501999999998,11.84516222320647,0.511968908687831,142.93286807049455,32.70191176470587,32.49955882352945
16100,16100.0,2.450569175,-9.76203125,1.1615943925,0.5915756249999999,-0.080467224,-0.1123237625,-45.915985,40.5738835,-130.5549625,10.134873757904195,0.6088083997472915,144.21900941034775,32.65310294117645,32.48651470588239
16200,16200.0,1.5827178894736842,-8.900670631578947,0.7350768815789473,0.2499212957894737,0.09560434263157896,0.13682315210526316,-45.84999125,40.36750925,-132.107925,9.071658306278223,0.3035205878181253,145.5482609231268,32.604294117647036,32.47347058823534
16300,16300.0,2.68202971,-9.3263442,0.6045791629999999,0.18555297699999998,0.51575928,0.346543885,-44.47097775,40.76881375,-133.79288,9.723388208959683,0.6487105885575548,146.7666082000831,32.555485294117624,32.46042647058828
16400,16400.0,2.849985475,-9.168023800000002,1.062651055,0.159824374,0.356767273,0.3085670395,-42.745209,41.11862125,-134.8503125,9.659509953523225,0.4983310082980637,147.31785679220113,32.50667647058822,32.447382352941226
16500,16500.0,2.188074210526316,-9.567021210526317,0.7325616,0.07145771221052633,0.4238739005263158,0.2817543405263158,-41.11747625,41.3272865,-135.97984250000002,9.843723740634903,0.514993500532905,147.95056635308276,32.457867647058805,32.43433823529417
16600,16600.0,3.5052703999999997,-10.0103726,1.79282532,-0.0171691896,0.417114252,0.306378174,-39.3688205,42.125702,-136.8488325,10.757210709862537,0.5186015154545911,148.4994650543183,32.40905882352939,32.421294117647115
16700,16700.0,2.12645572,-11.9391324,-0.94351195,-0.28859863199999997,-0.33623962399999996,-0.18044128199999998,-38.805389,42.35496625,-136.073305,12.189791939923037,0.4843565263024941,147.70169227794375,32.36024999999998,32.40825000000006
16800,16800.0,0.41502075800000016,-9.061430999999999,-0.5609222540000001,-1.899488825,-0.1088066126,-0.70104066,-40.958862599999996,43.4710696,-130.72296200000002,9.126363103033622,2.0281779546776413,143.7218119173714,32.311441176470574,32.395205882353004
16900,16900.0,2.55148313,-11.51704365,-0.4330093375,-1.247064985,-0.248570252,-0.6254089395,-43.0923464,43.62915,-124.76104720000001,11.805552801305339,1.4192275316716505,139.0177858924755,32.262632352941154,32.38216176470595
17000,17000.0,1.13160476,-8.03934423,-0.521358503,-0.139090728,-0.3456176715,-0.6402694585,-45.7771295,42.404937,-121.71058700000002,8.138214077871245,0.7513722009190335,136.77435377741924,32.21382352941174,32.36911764705889
17100,17100.0,1.03111267,-7.77513885,-1.4678421,0.33138275,-0.48419953,-0.312324525,-47.579193,41.6339875,-121.67853999999998,7.9864432424644995,0.6703952867765084,137.123723490587,32.16501470588233,32.35607352941184
17200,17200.0,3.44207005,-8.2318345,-2.36746215,0.20674896,-0.1252136225,0.0365447995,-47.631073,41.91932625,-121.8429575,9.231782189024576,0.2467628333717179,137.374233669148,32.116205882352915,32.34302941176478
17300,17300.0,5.28799435,-9.832962,-3.70581815,0.295700065,-0.538002015,0.0019302365000000016,-47.21794125,42.53120375,-121.55037,11.76569826329674,0.6185784620001487,137.16028354680142,32.0673970588235,32.32998529411773
17400,17400.0,-0.683136,-8.5083695,-1.0063553,0.53644561,0.389312735,0.283683772,-47.8809355,42.39616325,-122.32475500000001,8.685210751052104,0.7316180044597969,138.03407830373638,32.01858823529409,32.31694117647067
17500,17500.0,4.748107900000001,-9.632446,-2.0125274600000003,0.24723053,0.6934433149999999,0.1111145025,-46.16279625,43.363571,-123.8731375,11.026429817607124,0.7947807914151511,139.12598557718906,31.96977941176468,32.30389705882361
17600,17600.0,1.425552375,-10.09153,-0.32161712,0.626457225,-0.029869079500000003,0.60593415,-44.91234,43.7252045,-126.90963625,10.298613602649002,0.8724446297356602,141.54568517177958,31.920970588235264,32.29085294117656
17700,17700.0,1.114906325,-9.475029,1.30823515,0.595039375,0.003150939999999991,0.14679718,-44.166947500000006,43.6107635,-128.96347,9.634483171003444,0.6211139859787567,143.12307545538602,31.872161764705854,32.277808823529504
17800,17800.0,2.5412521000000003,-9.604308999999999,-0.145645142,0.397430425,0.055351257,-0.119514465,-43.90792875,43.21632375,-130.995175,9.938668418569927,0.4269204154378548,144.75944221860286,31.82335294117644,32.26476470588245
17900,17900.0,1.871532465,-9.426302475,1.094366425,0.187680055,0.211305237,0.0950294485,-44.13452175,43.0572515,-132.2998025,9.67277733572078,0.30031529060529283,145.9627368333794,31.77454411764702,32.25172058823539
18000,18000.0,2.593566905,-9.7151034,0.48552628299999995,0.283343505,0.1610725395,0.230804444,-42.84744275,43.3609,-133.26301750000002,10.072578745153523,0.3997174838853622,146.54400333997663,31.72573529411761,32.23867647058834
18100,18100.0,2.69124528,-9.4916106,1.32883226,0.0126609804,0.361509711,0.203475953,-41.99943525000001,43.455505,-134.24835249999998,9.957388205887671,0.4152320644820428,147.22430519986068,31.6769264705882,32.22563235294128
18200,18200.0,1.855910505,-9.135887400000001,1.25819705,0.0465843204,0.3516571075,0.291460417,-40.88058475,43.8053125,-134.56840499999998,9.407026202550027,0.4591249018174444,147.30528162799249,31.628117647058787,32.212588235294234
18300,18300.0,3.133573885,-10.1422284,1.419505305,-0.021001434399999998,0.44396362149999996,0.3741867055,-39.17621894736842,44.301645263157894,-135.55626578947368,10.711099305357713,0.5812314190027903,147.89510200917127,31.579308823529374,32.19954411764717
18400,18400.0,3.16206742,-11.688645075,0.13382110300000005,-0.1945388805,-0.32287445649999996,0.012255859500000008,-38.2592761,44.8960881,-135.33446999999998,12.121530827449165,0.3846219690091537,147.63110422922585,31.53049999999996,32.186500000000116
18500,18500.0,0.961732495,-9.116735775,-1.0103660535,-1.87871779,-0.2134712205,-0.758301545,-40.605467600000004,44.9647526,-130.575715,9.2388030985478,2.0372805380219274,143.94805613972773,31.48169117647055,32.17345588235306
18600,18600.0,1.800246395,-11.59281615,0.5739402775,-1.42997517,-0.036574553199999985,-0.593980405,-43.463744899999995,44.44168079999999,-123.812103,11.75862017351725,1.551863948228141,138.54154455295009,31.432882352941128,32.160411764706005
18700,18700.0,0.29787978115,-8.250624875,-0.510459894,-0.238533783,-0.23147048399999998,-0.82130816,-46.273346999999994,42.6799,-120.145872,8.280393171083986,0.8916378596722139,135.63889525061302,31.384073529411715,32.14736764705895
18800,18800.0,1.0178142510526316,-7.687442205263157,-1.4752116842105265,0.3352508578947368,-0.33923981894736843,-0.4216525421052632,-47.9254145,41.3447575,-120.09796200000001,7.894155195939037,0.637858995026474,135.75657897371104,31.33526470588231,32.134323529411894
18900,18900.0,3.46194452,-8.251352,-3.05137334,0.015853882,0.05534972999999999,-0.125909424,-48.6544811,40.9603882,-119.92431850000001,9.458682261389457,0.20641019785503845,135.74564078857537,31.286455882352897,32.12127941176484
19000,19000.0,4.834533599999999,-8.96171,-2.04317016,0.645642104,-0.576989738,-0.0247039792,-48.8102718,40.8193969,-120.05996699999999,10.396948830381028,0.8669324473729649,135.87898854793082,31.237647058823484,32.10823529411778
19100,19100.0,1.3792205599999998,-7.878091400000001,-2.79015806,0.226562504,-0.234396368,-0.10587768619999999,-49.3283084,40.3430171,-120.62363,8.581470844994506,0.3873157551287364,136.42178439750023,31.18883823529407,32.095191176470735
19200,19200.0,4.62432544,-13.247326999999999,-5.34525444,0.19673767000000006,-0.200100706,0.62894286,-47.37508652631578,41.385209,-122.03939368421051,15.082721072468381,0.6964024004943863,137.2989610753178,31.140029411764655,32.08214705882367
19300,19300.0,-1.00420536,-7.50842594,1.56130368,0.5056609999999999,0.547079466,0.301263424,-46.39472955,41.30493205,-124.80842725,7.761915750863818,0.8334495257240258,139.41247694437885,31.091220588235245,32.06910294117662
19400,19400.0,2.50354308,-10.4485106,0.249755864,0.461990358,-0.037756345600000005,0.21413269,-44.786682299999995,41.3905321,-127.12287975,10.768814057654495,0.5128756212437235,140.99382253376,31.04241176470583,32.05605882352956
19500,19500.0,2.798622155,-10.10703825,0.31823272700000005,0.6767982645,0.015884400399999984,0.010236358700000005,-44.46670555,41.27113365,-128.517382,10.492601402477137,0.6824775695713438,142.11729023090484,30.993602941176423,32.0430147058825
19600,19600.0,1.318653875,-9.2502099,0.8592666475,0.1359619175,0.3044113155,0.11394424130000001,-44.31083655,41.051712,-130.38421300000002,9.388058317098153,0.3556334002534264,143.69680449233377,30.944794117647014,32.02997058823545
19700,19700.0,1.88996655,-9.50005025,0.5169509925,0.2267173785,0.43341293049999996,0.2232833845,-43.338012,41.21246355,-131.6285695,9.700198183119852,0.5378899709232767,144.5779280531868,30.895985294117594,32.016926470588395
19800,19800.0,2.6964592,-9.240636475,0.8890075690000001,0.1003776546,0.13860321039999998,0.23863144,-42.27333075,41.1158761,-132.6792125,9.670801270325901,0.2970716396878336,145.19417344175483,30.847176470588177,32.00388235294134
19900,19900.0,1.914445475,-9.6934442,0.71800766,0.06656189,0.1964988705,0.172955323,-41.23779305,41.4282235,-133.0287905,9.907180386549284,0.2715357578864283,145.30492922017515,30.798367647058768,31.99083823529428
20000,20000.0,2.27429805,-9.66913425,0.828137206,-0.055513763300000005,0.494238266,0.2812942525,-40.07003825,41.703262,-133.55697550000002,9.967590342915184,0.571880454556854,145.54125834912566,30.74955882352935,31.977794117647218
20100,20100.0,3.91695861,-11.69541,0.402986145,-0.213076784,-0.08643646220000002,0.043150330499999966,-39.06433079999999,42.26577825,-133.8065345,12.344138551942866,0.27681732885572874,145.65926775868274,30.700749999999946,31.964750000000162
20200,20200.0,0.98992922,-9.1427153,-1.43048857,-1.4992722,-0.47675323700000005,-0.80682373,-41.3015745,42.4172965,-129.524151,9.32336664969183,1.7684775258106773,142.41403004098294,30.651941176470533,31.951705882353107
20300,20300.0,0.7983886639,-11.8886233,-0.301387025,-1.23232114,-0.20478515600000002,-0.5639404299999999,-43.79554825,41.73759555,-123.4294119,11.930383347240696,1.3712824634924674,137.4590979846376,30.60313235294112,31.938661764706048
20400,20400.0,1.31110384,-8.8114761,-0.2679840095,-0.248225406,0.0421478269,-0.837078852,-46.5086369,40.29106165,-121.201173,8.91908750127263,0.876732226320534,135.92738422822418,30.554323529411704,31.92561764705898
20500,20500.0,0.10192108039999996,-7.2140625,-1.81368254,0.0726303125,-0.499009704,-0.23381347600000002,-48.187484000000005,39.17037855,-120.5989835,7.441713948039639,0.558865881372157,135.64833346025094,30.505514705882288,31.91257352941193
20600,20600.0,4.06528019,-8.339456599999998,-2.51650535,0.17542876899999998,-0.023796081799999997,0.08373871020000001,-47.98378005,39.2613981,-119.92187450000002,9.615726693057491,0.2094017367211111,135.00069024729518,30.45670588235288,31.89952941176487
20700,20700.0,4.645852421052632,-9.344418894736842,-3.5247136315789467,0.6174380652631579,-0.3857261242105263,0.044701024473684216,-48.15643405,39.326706099999996,-121.70410290000001,11.014888920283864,0.7303270833233243,136.66575302693528,30.407897058823465,31.886485294117808
20800,20800.0,1.4973831,-6.9853592,-2.57515715,0.37212753,-0.02720260999999996,-0.189025875,-48.8057711,38.92677285,-121.3166804,7.625974784163784,0.4732758479207674,136.43692762737857,30.359088235294053,31.873441176470752
20900,20900.0,4.484439825,-13.784595499999998,-5.250076325,0.4094123875,-0.551582325,0.444812775,-47.482682399999995,39.749832,-123.08151289999999,15.466224579556913,0.8291599382656679,137.7815211604074,30.31027941176464,31.86039705882369
21000,21000.0,-2.368057225,-7.930469500000001,2.21204375,0.3795928925,0.4745368975,0.44214248,-47.10235565,39.602813399999995,-125.68069299999999,8.618684199116199,0.8049699522640544,139.93832118955976,30.26147058823523,31.84735294117663
21100,21100.0,2.922229725,-10.65237025,0.676166525,0.495433805,-0.0157585145,0.13880920749999998,-45.5895988,40.30365,-127.7041624,11.098154487170554,0.5192352771282833,141.46084677603383,30.21266176470581,31.83430882352957
21200,21200.0,2.0393638750000003,-9.71684275,0.38288116,0.584117875,0.18317794825,-0.02684021025000001,-45.4827876,40.046690000000005,-129.679258,9.93593589206505,0.6212308611010273,143.140257724884,30.1638529411764,31.821264705882516
21300,21300.0,1.227729825,-8.926749999999998,1.691303225,0.2373695375,0.3158035275,0.1667785675,-45.195007399999994,39.4467172,-131.333008,9.168531323690477,0.43586358177616813,144.38502904106105,30.11504411764699,31.80822058823545
21400,21400.0,1.767024975,-9.49477775,0.00579071045,0.354019175,0.372535705,0.3145790125,-43.917846399999995,39.994202,-132.755736,9.658023973519377,0.6026667784427684,145.43880614328316,30.06623529411757,31.795176470588395
21500,21500.0,3.25987244,-9.487960800000002,1.29842222,0.145812988,0.25157776,0.334292604,-42.3214732,39.7808836,-133.915408,10.116264044488053,0.4436970262683495,145.9692724012238,30.017426470588163,31.782132352941336
21600,21600.0,1.85903016,-9.5655302,0.7941955519999999,0.05100707980000001,0.46079712,0.160647586,-41.237182399999995,40.4226696,-134.855648,9.777230573594,0.4906815296270339,146.69890206543644,29.96861764705875,31.76908823529428
21700,21700.0,2.78605344,-10.703488400000001,2.00471188,-0.056365966600000005,0.29758910800000005,0.18536071399999998,-40.0872802,40.285948,-135.492858,11.240841535110004,0.3560523731828933,146.92954402614853,29.919808823529333,31.756044117647214
21800,21800.0,1.10699764,-11.1251069,-2.20309758,-0.743463132,-0.13426819,-0.20238647199999998,-40.375671200000006,40.284118,-134.655458,11.400995289183571,0.78278137323222,146.23666171111822,29.870999999999924,31.743000000000162
21900,21900.0,-0.487289432,-9.9505155,0.14298096,-1.85197752,-0.23696289,-0.77337952,-42.008972,40.839538,-129.45160199999998,9.967286009470504,2.020939993098645,142.09302885457444,29.822191176470515,31.7299558823531
22000,22000.0,1.241073632,-10.4803528,0.219113163,-1.07583316,-0.012829589893600002,-0.718408212,-44.475404,40.3005984,-124.19738799999999,10.564584223762797,1.2946384530036863,137.93961195864892,29.773382352941102,31.71691176470604
22100,22100.0,1.53078459,-7.7338448249999985,-0.873598455,-0.012376403799999993,-0.5436515825,-0.5590461624999999,-46.9396974,38.964234000000005,-122.848817,7.932885234988222,0.7834237695163939,137.16197365310276,29.724573529411693,31.70386764705898
22200,22200.0,1.0359619225,-7.76676805,-2.01179961,0.272802729,-0.6403198219999999,0.017963409299999997,-47.9098516,38.4759524,-122.298584,8.096740767354012,0.6982930032685708,136.86747464693428,29.675764705882273,31.690823529411922
22300,22300.0,3.43124007,-9.232969500000001,-2.928718575,0.4223632825,-0.022146606850000004,0.1798187295,-47.3107908,38.5330204,-123.24218799999998,10.276381053935033,0.4598181586436414,137.51997492477466,29.626955882352856,31.677779411764863
22400,22400.0,3.94251327,-7.875224299999998,-4.382601945,0.2045692475,-0.568045815,-0.489687361,-47.6385498,38.24920720000001,-122.810974,9.844751822078672,0.7869834519387162,137.16784377386384,29.578147058823447,31.664735294117804
22500,22500.0,1.7651077349999995,-14.00215645,-4.809249905,0.46528855399999997,-0.7831146134999999,0.6984985375,-46.9897458,38.7277222,-124.914858,15.030810477744849,1.182535070983928,138.96658430334406,29.529338235294038,31.65169117647075
22600,22600.0,-1.85468212,-7.445276665,2.34857257,0.32030792,0.901432015,0.176041411295,-46.18042,38.6755372,-127.0111064,8.042415662807816,0.9821679348933235,140.57119834555465,29.48052941176462,31.63864705882369
22700,22700.0,3.4704346,-11.023961199999999,0.003274536400000028,0.554235836,0.0438446036,0.06691284099999997,-44.9401856,38.448486,-128.83057,11.564646431658664,0.5636016611224229,141.75772879809756,29.431720588235212,31.62560294117663
22800,22800.0,2.05223539,-10.137023699999999,0.7344711309999999,0.6321105920000001,-0.14726562399999998,0.030267333499999993,-44.7528088,38.2839968,-130.45898599999998,10.368737033234682,0.6524334233475954,143.13649708772223,29.382911764705803,31.61255882352957
22900,22900.0,0.57010498,-8.98397525,0.8755966199999999,0.216978453,0.26414032,-0.031098937299999987,-45.246887,37.782288,-131.86798000000002,9.044872486735224,0.3445703552677613,144.443574516093,29.334102941176386,31.599514705882513
23000,23000.0,1.58547972,-9.3346099,0.38957672,0.31391145,0.34744567800000004,0.303186035,-44.39567585,37.67974805,-133.454286,9.47697260413246,0.5578721938506512,145.605177441145,29.28529411764697,31.58647058823545
23100,23100.0,2.92707053,-9.387882699999999,0.475407414,0.256077579,0.199488832,0.412689208,-42.62680085,37.96760625,-134.6466795,9.846145281365178,0.5257137924106903,146.24744519235858,29.23648529411756,31.573426470588387
23200,23200.0,1.99333647,-9.687391900000001,0.78282622,0.08882903850000001,0.26680144899999997,0.14168396300000002,-41.69807435,37.9559336,-135.327834,9.92419387820652,0.3151619883596154,146.60496144830938,29.187676470588144,31.56038235294133
23300,23300.0,2.26161198,-9.93699,1.27913968,-0.023875427799999998,0.46505586,0.302964782,-40.44204775,37.85675005,-135.98526299999997,10.271747455080316,0.5561761744400997,146.83560809101385,29.13886764705873,31.547338235294276
23400,23400.0,2.20594559,-12.0444192,-0.914904759,-0.296913923,-0.35961838399999996,-0.1015617405,-39.79682985,38.68080145,-135.824737,12.285233982172524,0.4786207284208028,146.7255381199742,29.09005882352932,31.53429411764721
23500,23500.0,0.74643405,-8.61592115,0.05403365950000005,-1.84633869,-0.1825805705,-0.6678634800000001,-41.71157879999999,39.361420200000005,-131.93008400000002,8.651395412489311,1.9719071791385885,143.85779348174162,29.041249999999906,31.52125000000016
23600,23600.0,1.37186281,-11.60999415,-0.572228261,-1.21053544,-0.164033504,-0.6540031700000001,-43.685378799999995,39.32540825,-126.312028,11.705826407120302,1.3858136286363476,139.31881448509301,28.99244117647049,31.508205882353096
23700,23700.0,0.694539645,-8.013664215,-0.11356811649999997,-0.198051454,-0.005210113449999998,-0.655125455,-46.1096956,38.47755425,-124.258422,8.04482337145601,0.6853649107258916,138.01032857777852,28.94363235294108,31.49516176470604
23800,23800.0,0.237792208,-7.31156009,-1.2376418665000002,0.32083664149999996,-0.44777374200000003,-0.25991668399999995,-47.5299068,38.1942747,-124.38469199999999,7.419974329666647,0.6097903171503705,138.52608840393754,28.894823529411674,31.482117647058978
23900,23900.0,3.53233634,-8.614309599999999,-2.44748918,0.332339475,-0.170644381,0.05417633075,-47.7550497,37.974167,-124.71511880000001,9.62690674623626,0.3784135238408695,138.84038262788042,28.846014705882247,31.469073529411922
24000,24000.0,4.87996434,-10.39530215,-3.5832375,0.31637037900000003,-0.6175155435,-0.10619888150000001,-47.73666345,38.027191,-124.86847,12.030209032011742,0.702477534361918,138.9857947419735,28.797205882352838,31.45602941176486
24100,24100.0,-1.0494537,-8.441925,-0.0037841796999999997,0.48797607,0.16506958,0.2522583,-48.2926933,37.90084829999999,-125.7903283,8.506906905220292,0.5735877099911671,139.9710145764511,28.74839705882343,31.4429852941178
24200,24200.0,5.0150604,-10.083160000000001,-2.8804168999999997,0.26107788,0.67108154,0.0029907227,-46.84158275,38.8034812,-127.202303,11.624015997883596,0.7200840486889946,140.99745693762418,28.69958823529402,31.429941176470738
24300,24300.0,0.4493103,-9.247574,0.32302856,0.46774292,-0.09484863,0.66238403,-45.8089441,39.23294085,-130.504072,9.264116368102128,0.8164142974140299,143.76752140676422,28.650779411764606,31.416897058823682
24400,24400.0,0.17398071,-9.315811,0.8569336,0.5220642,-0.18859863,-0.049209595,-45.21194475,39.12704485,-132.01110749999998,9.356759004590321,0.557263004693099,144.92103109325257,28.601970588235194,31.403852941176623
24500,24500.0,1.5446625,-9.423553,-0.299469,0.40596008,0.29930115,0.039215087999999995,-45.2128595,38.824845200000006,-134.26895349999998,9.554005184459355,0.5058879204643818,146.9003927734223,28.553161764705774,31.390808823529568
24600,24600.0,1.8678894,-9.837753,0.5947571,0.3409729,0.35682678,0.31510925,-44.12490815,38.8871773,-135.969546,10.031158004320426,0.5855610206418635,148.14524103878972,28.50435294117636,31.3777647058825
24700,24700.0,2.78402936,-9.47454815,-0.12714157099999998,0.22188033699999998,0.35869064100000003,0.4419349785,-42.211915000000005,39.397431,-137.25891,9.876692380971743,0.6109790073451437,148.90968901896485,28.455544117646948,31.36472058823545
24800,24800.0,2.80635222,-10.09362875,1.212466395,0.0831199648,0.1282104465,0.27697372600000003,-40.66085750000001,40.057374,-138.596345,10.546979995552073,0.3172123030231767,149.88950771705424,28.406735294117542,31.351676470588387
24900,24900.0,3.1736824,-9.991873599999998,0.950308993,-0.1401588395,0.3872398405,0.10243530064999999,-39.545440500000005,40.2923585,-139.67209000000003,10.526824352368331,0.4258020154387129,150.65073252769741,28.35792647058813,31.338632352941328
25000,25000.0,1.923423785,-11.7750748,-1.306056235,-0.85563506,-0.50636217,-0.5246314985,-40.7142635,41.333008,-138.0661,12.00393211029365,1.1245068214984302,149.76111358116933,28.309117647058716,31.32558823529427
25100,25100.0,-1.576058935,-10.504413625,-0.6600410337,-1.732193,0.033299255720000004,-0.823064445,-44.211578499999995,43.0374135,-133.05511,10.643507167682836,1.9181459920623207,146.66622618814668,28.2603088235293,31.31254411764721
25200,25200.0,2.233410635,-9.60964365,0.002135467200000001,-0.933728812,-0.1442718465,-0.6496467615,-46.6293335,43.740082,-128.134155,9.86688839859626,1.1498115868803889,143.19951238335187,28.21149999999989,31.299500000000148
25300,25300.0,0.8487960859999999,-7.26110536,-0.97307433,0.13719024659999998,-0.524475102,-0.38658294200000004,-49.4514465,42.9481505,-127.15377749999999,7.376415448541066,0.6690124660727236,143.03220795479666,28.162691176470474,31.286455882353092
25400,25400.0,2.19337157,-8.892999099999997,-2.49795377,0.250741581,-0.383862308,0.01449890147,-50.180817,42.714692,-126.88675,9.495962749004944,0.4594053148269061,142.97870169279966,28.11388235294106,31.273411764706033
25500,25500.0,3.7915009,-8.8239276,-2.53182981,0.201316835,0.15612792920000002,0.0271759034,-50.182342999999996,42.57431,-127.44216999999999,9.934580466679773,0.26515973134019105,143.4307694764795,28.06507352941165,31.260367647058967
25600,25600.0,4.31332249,-8.9048459,-4.16969764,0.272367863,-0.7618103239999999,-0.188432309,-50.7713315,42.815399,-127.669525,10.737565091706774,0.8348422404036606,143.91107184349838,28.01626470588224,31.24732352941191
25700,25700.0,-1.0913513199999998,-12.3329864,-2.51087953,0.834831236,-0.15801696650000002,0.8324081459999999,-50.102234,43.011475,-129.92705999999998,12.706052494477492,1.201494319266151,145.74467511797087,27.967455882352823,31.234279411764856
25800,25800.0,-1.25834354,-6.7266006900000015,3.4375167600000003,0.239140321,1.24822999,0.065412903,-48.7037655,44.100189,-131.827545,7.676590872724748,1.2794201088393904,147.29422368203691,27.91864705882341,31.2212352941178
25900,25900.0,4.20091087,-10.8794707,0.6650268420000001,0.59344022,0.001129150500000002,0.209333798,-47.4021915,44.0116885,-134.89456,11.69942969904969,0.6319084821329569,149.60147640700978,27.869838235293997,31.208191176470734
26000,26000.0,1.98472288,-10.182507199999998,1.209236165,0.477546705,0.201290892,0.072451782,-47.4128725,43.6882025,-136.88126,10.448676293310232,0.5251370502483984,151.30475859772156,27.821029411764584,31.195147058823682
26100,26100.0,1.23174282,-8.9114334,1.01134795,0.18907013,0.5566665580000001,-0.028225708,-46.739197,43.267823,-139.04495,9.054310966442856,0.5895471884268952,152.93883219524488,27.77222058823517,31.18210294117662
26200,26200.0,2.1618866100000003,-9.528533900000001,0.371508786,0.324884038,0.39772491600000004,0.258650208,-45.6718445,43.0313115,-140.586095,9.777862409852336,0.5752004845250162,153.95500835190148,27.723411764705762,31.169058823529557
26300,26300.0,2.19815827,-9.2364409,0.83322145,0.20867005,0.260847475,0.298712157,-44.1207885,43.312836499999996,-142.2348,9.530980128366764,0.4481902899579579,155.09198895060138,27.674602941176342,31.1560147058825
26400,26400.0,1.34522858,-9.689662,0.472653198,0.091700743,0.5935241760000001,0.222111508,-42.516327000000004,43.2617185,-143.47839499999995,9.794750234034877,0.6410615444109309,155.77323343223094,27.62579411764693,31.142970588235446
26500,26500.0,2.23156433,-9.5693646,1.7578644099999998,0.08924713440000001,0.7276413100000001,0.273039233,-40.407681947368424,43.28910394736841,-144.10874315789474,9.98252405706218,0.7824012144626683,155.80172571885316,27.576985294117517,31.129926470588387
26600,26600.0,1.8457413130000002,-12.334661700000002,0.158296202,-0.132743839,0.0912506105,-0.124302675,-39.52583415,43.5713202,-144.6117405,12.478534697011893,0.20728583831444147,156.11982211281773,27.528176470588107,31.11688235294132
26700,26700.0,1.5935043,-9.003730599999997,-0.888207987,-1.70998379,-0.25762939500000004,-0.44047394,-41.4106765,45.39955155,-140.08270249999998,9.193239362152497,1.785005574311659,152.96865354258438,27.47936764705869,31.103838235294266
26800,26800.0,0.719581969047619,-11.802701380952382,-0.35413687666666666,-1.3922606238095236,-0.20624796380952384,-0.5840264914285714,-44.55513005,46.462784,-133.09852450000002,11.830704935653744,1.5241098401366215,147.84898911764014,27.43055882352928,31.09079411764721
26900,26900.0,1.14070209,-9.1529477,-0.1971260035,-0.48764343549999994,-0.155470275,-0.69086074,-47.36412045,45.82572935,-129.722365,9.226845718824924,0.8612702713447133,145.50394357599342,27.381749999999872,31.077750000000147
27000,27000.0,0.139382936,-7.597187785,-1.361714895,0.09010162199999999,-0.5911628720000001,-0.620194994,-50.6858825,44.0971375,-128.41796499999998,7.719951241480012,0.8620473002733955,144.93033459683863,27.332941176470452,31.064705882353092
27100,27100.0,2.249451465,-7.5144708,-2.58221894,0.04302291849999999,-0.2560188375,0.06962356575,-51.796723,43.4341425,-126.93481499999999,8.258235572419236,0.27129826511508337,143.8119894796223,27.284132352941047,31.05166176470603
27200,27200.0,5.07814575,-9.976370800000002,-3.49573439,0.39504012850000003,-0.4885719175,0.19324645629999998,-51.162719,43.431092,-127.11258,11.727752263655482,0.6584859857107427,143.74109039202784,27.23532352941163,31.03861764705897
27300,27300.0,0.583090973,-6.4125486,-3.38798521,0.4248123215,0.2922698985,-0.395308681,-52.57186899999999,41.973113500000004,-127.436065,7.328307690471232,0.6625480202416004,144.10238737966841,27.186514705882214,31.02557352941191
27400,27400.0,5.331275140000002,-14.595512625,-6.29514621,0.1828331005,-0.712976077,0.38681182784999996,-51.412201,42.30575500000001,-129.153445,16.769796883248894,0.8559428203290482,145.30535437289552,27.137705882352805,31.012529411764852
27500,27500.0,-2.4627902789473683,-6.437980157894738,1.8014967708421048,0.5513851663157895,0.54800176,0.38228728,-50.79498200000001,42.079162,-132.43636999999998,7.158496340055003,0.8722240187140486,147.95418555854388,27.08889705882339,30.9994852941178
27600,27600.0,3.224801625,-11.055323399999999,0.200440975,0.6400970500000001,-0.20649719600000002,0.173107911,-49.2027285,42.414093,-135.44235,11.536573619102994,0.6946034122692619,150.21486500800358,27.04008823529398,30.986441176470734
27700,27700.0,2.5903899900000003,-10.05777545,0.32955093500000004,0.5606246979999999,0.109413148,-0.012182617221,-49.3003845,41.33072,-136.610415,10.394367611061023,0.5739317913665978,151.00082160956572,26.99127941176457,30.973397058823675
27800,27800.0,1.668391455,-9.02760965,1.13202664,0.17303771799999998,0.3205482475,0.08932647690000001,-49.008340000000004,40.71856105263158,-138.2756242105263,9.251123640688244,0.3773158313855063,152.249701630004,26.942470588235153,30.960352941176616
27900,27900.0,1.84537656,-9.5980862,0.598110962,0.333731076,0.17742614399999998,0.35133362,-47.6747135,40.69747925,-139.0379385,9.792506436363553,0.5163611563117054,152.515076880562,26.89366176470574,30.947308823529557
28000,28000.0,1.92271426,-9.5344026,1.13106082,0.184161374,0.15676879800000001,0.217968752,-46.6623675,40.51383955,-140.58746449999998,9.792134127484916,0.3256138792076481,153.5696824625231,26.844852941176327,30.934264705882498
28100,28100.0,1.2784302,-9.505917,0.849984744,0.13005066199999998,0.429260256,0.24118347199999998,-45.4946899,40.4763033,-141.379167,9.62997819970185,0.5094554119741264,153.93598191093201,26.796044117646915,30.92122058823544
28200,28200.0,2.48828125,-9.8709675,1.507255575,0.071189881,0.55603025,0.33642578,-43.38913025,40.7868194,-142.589952,10.291047301046039,0.6538623831139541,154.52565479123143,26.747235294117502,30.90817647058838
28300,28300.0,2.457752225,-11.70103475,0.92486569,-0.0478515625,-0.237068175,0.13028716750000002,-42.10273715,40.7447058,-142.22114950000002,11.999280170997539,0.2872832115074557,153.81687301424333,26.69842647058809,30.89513235294132
28400,28400.0,0.7013092,-10.082855,-2.034664125,-1.262245175,-0.150775905,-0.4478797925,-43.27255235000001,41.4013668,-139.4257325,10.318895422856038,1.3481610251869531,151.74408011024175,26.649617647058676,30.882088235294265
28500,28500.0,-0.1501350375,-11.37183375,0.505283355,-1.705135375,-0.1678276025,-0.633502975,-45.48789975,41.97029095,-132.0041645,11.394599662356566,1.8274499247827656,145.79526389914415,26.600808823529267,30.869044117647203
28600,28600.0,1.0475616375,-9.433426,-0.522132875,-0.72349166,-0.2181587175,-0.664127375,-47.747574,41.460724,-127.2029885,9.506141139037737,1.0114501430884029,142.05461883355767,26.551999999999854,30.856000000000144
28700,28700.0,0.96796039,-7.4166146249999985,-1.16288375,0.220325475,-0.42774964,-0.5914268475,-49.7892765,40.026093200000005,-125.561677,7.573834446186733,0.7643330406333944,140.87914049391196,26.50319117647044,30.842955882353085
28800,28800.0,2.44859465,-8.351311899999999,-2.58497162,0.043760681399999994,-0.42752838,-0.23924866600000003,-50.8383176,39.0530402,-124.678652,9.078952198765029,0.4950528494830469,140.19449522043828,26.45438235294102,30.829911764706026
28900,28900.0,2.62577051,-8.4726867,-2.23482822,0.40637512,-0.315365602,0.13806915,-51.0098266,38.4661864,-124.5642104,9.153482669302003,0.5342458566223908,139.99249678188662,26.405573529411612,30.81686764705897
29000,29000.0,4.80975936,-9.2792956,-4.1714919,0.04302063,-0.566021719,-0.355041502,-50.847167799999994,37.743836,-124.23431200000002,11.254923533362934,0.6745631692847098,139.44265656007235,26.356764705882203,30.80382352941191
29100,29100.0,-0.3255706690000001,-11.82768255,-0.8832946657899999,0.65319825,-0.030720522000000004,0.609547423,-50.501709999999996,37.691040799999996,-125.487672,11.958002966632288,0.918152582902118,140.4219477383825,26.307955882352786,30.790779411764852
29200,29200.0,-1.22387545,-6.45558016,2.08874357,0.46624908,1.15470579,0.17108764999999998,-49.463196,38.1478886,-127.63488799999999,6.950468495223602,1.2667067357804558,142.10052467089682,26.25914705882337,30.77773529411779
29300,29300.0,4.39233097,-10.51423315,0.5069000180000001,0.425659175,0.22110748100000002,0.305740357,-47.601013,38.694458399999995,-129.329228,11.409601228677454,0.5827364527631813,143.14071958023547,26.21033823529396,30.764691176470734
29400,29400.0,1.98782961,-10.1571381,1.13728636,0.586196892,-0.23770294400000005,0.187808224,-47.5296016,38.151244399999996,-131.00952,10.413952742860145,0.6629462639124658,144.49258769750242,26.16152941176455,30.75164705882367
29500,29500.0,1.42351533,-9.283604400000002,-0.14941788,0.25686950350000004,0.29412612650000003,-0.0600158675,-47.4554442,37.7777098,-132.152406,9.403195430832314,0.41068571483030775,145.40798765157749,26.11272058823513,30.73860294117661
29600,29600.0,2.14423368,-9.666087325,0.7408088709999999,0.263052367,0.1379043595,0.2397529625,-46.8359372,37.513733,-133.440244,9.930092231460224,0.3818821970334596,146.31206321862498,26.06391176470572,30.725558823529553
29700,29700.0,1.96407242,-9.6394489,0.28190307625,0.2928268455,0.07996063125,0.34451828,-45.53588840000001,37.6446532,-134.726564,9.843492180190738,0.4591960591380682,147.11195323264445,26.01510294117631,30.712514705882487
29800,29800.0,1.993454,-9.6905626,0.8335845900000001,0.15236358849999998,0.214239503,0.25567856,-44.192504799999995,37.88574120000001,-135.250856,9.928902195119807,0.3681035889616839,147.2452169651161,25.966294117646896,30.699470588235435
29900,29900.0,1.49145815,-9.409543699999999,0.583512109,0.15785064499999998,0.537065131,0.19905319149999998,-43.0456542,37.7316282,-136.36657599999998,9.54738734088976,0.5959231404311041,147.89353809022538,25.917485294117483,30.686426470588373
30000,30000.0,2.2710686300000003,-12.028439825,1.7116546300000002,-0.047528837750000004,0.1094161999,0.13732223400000002,-41.563109999999995,37.7804568,-136.699218,12.376745040204492,0.19300043643209927,147.78885229465862,25.86867647058807,30.67338235294132
30100,30100.0,0.37270203399999996,-10.0948793,-1.98259584,-0.994659436,0.0444885262,-0.242657472,-41.6564932,38.3441162,-135.370482,10.299246615481533,1.0248759901538702,146.73363023269164,25.819867647058658,30.660338235294255
30200,30200.0,-0.7604736320000001,-10.3525022,-0.206576542,-1.7169097800000002,-0.0413726796,-0.7047760040000001,-43.19641179999999,39.278259999999996,-130.43274,10.385132521944843,1.8566999067656569,142.90403064850986,25.77105882352925,30.6472941176472
30300,30300.0,1.49271238,-9.9581726,-0.262594605,-0.8161224359999999,-0.0750396716,-0.57182312,-44.9509436,39.17389,-125.70434565,10.076370468126543,1.0042609463751964,139.12912220138398,25.72224999999983,30.634250000000137
30400,30400.0,0.389462278,-7.789984,-1.13408814,0.203338622,-0.500073242,-0.511743148,-46.66175795,38.17085245,-124.64904725,7.884165674674961,0.7448278647251783,138.4621564943348,25.673441176470423,30.621205882353077
30500,30500.0,2.0737793,-9.0064754,-2.69654236,0.20802918,-0.463009644,-0.21901245,-47.450104,37.287979299999996,-124.199221,9.633804360235333,0.5533235595165982,138.0846134371877,25.624632352941013,30.608161764706026
30600,30600.0,3.03840942,-8.687811199999999,-2.21291806,0.081692505,-0.180078126,-0.0839294456,-47.8655245,37.2246549,-124.37599109999998,9.467203306568234,0.22179993807382556,138.3696894007069,25.575823529411593,30.595117647058963
30700,30700.0,4.1394988,-8.639932400000001,-3.04705196,0.26811523600000003,-0.50326844,-0.282711788,-48.38195770000001,36.4783482,-124.1358176,10.057241513947913,0.6372358224188261,138.1348282477952,25.527014705882177,30.582073529411907
30800,30800.0,-0.283493806,-10.408581300000002,-1.2215401000000001,0.70423052,-0.12579422099999998,0.3933052045,-48.3612825,36.447144,-125.570904,10.485401012529174,0.8204697932330127,139.4104393052754,25.47820588235277,30.569029411764845
30900,30900.0,1.7491302594999998,-8.215195725000001,0.22079012499999995,0.317431645,0.8499259865000001,0.05641784765,-47.04048145,37.2355661,-126.849977,8.679946369652239,0.9142982306727496,140.32194138999884,25.429397058823355,30.555985294117786
31000,31000.0,2.68795546,-10.6101151,0.3683288578,0.483505247,0.325131221,0.6437995915,-45.4039764,37.989196500000006,-129.251858,10.998515403911526,0.8692473963281422,142.16485899856704,25.380588235293946,30.542941176470734
31100,31100.0,0.895176695,-9.7636455,1.10718004,0.6674796980000001,-0.23578186350000002,0.1392356865,-44.37179525,38.2145686,-131.25862,9.869324025554867,0.7240273118982479,143.72918004793408,25.331779411764533,30.52989705882367
31200,31200.0,1.326256595,-9.208314199999998,0.067137911,0.272373197,0.2428939815,-0.16910553050000002,-44.44396955,37.7213285,-133.2695755,9.324215984434833,0.42006568941333616,145.4611999603175,25.28297058823512,30.51685294117661
31300,31300.0,2.34223023,-9.727431800000002,0.7666084325,0.2616683975,0.2768791205,0.1558517465,-43.82690425,37.3439021,-134.2365265,10.035639040767602,0.4123828989261995,146.06442980469396,25.2341617647057,30.50380882352955
31400,31400.0,1.37706755,-9.478615,0.262565605,0.19662476,0.276397705,0.25226593,-42.99621605,37.652434899999996,-135.552827,9.584345234655,0.42510630999479626,147.10891313376982,25.18535294117629,30.490764705882487
31500,31500.0,2.09892275,-9.7443775,1.1633911499999998,0.111946107,0.328590395,0.34867096,-41.20948785,38.002548,-136.9310045,10.035593332554056,0.4925756587434443,147.9612677836549,25.13654411764688,30.47772058823543
31600,31600.0,2.88182835,-9.5929415,0.661796565,0.1044845575,0.59384155,0.159057615,-39.46365355,38.05427589999999,-138.05298,10.042397167605788,0.6265730827951423,148.54019160077215,25.087735294117465,30.46467647058837
31700,31700.0,2.94647215,-12.271454,0.68334962,-0.26622772,-0.06821441500000001,0.0541229237,-37.9612725,38.45710775,-138.052062,12.64999860740669,0.3022563980701208,148.25108144593426,25.03892647058805,30.451632352941317
31800,31800.0,-0.2372207685,-9.9155655,-1.0332947000000001,-1.50086975,-0.356903075,-0.5674591099999999,-39.375839500000005,39.65476985,-133.913115,9.979892235550023,1.6461129446246037,145.10588189498498,24.99011764705864,30.43858823529425
31900,31900.0,0.5827941764999999,-11.0737535,-0.3335876299999999,-1.2420120000000001,0.18584442,-0.5594711299999999,-40.6131744,40.6778719,-128.94722099999998,11.121232569952438,1.3771526555500666,141.17956951891955,24.941308823529223,30.425544117647195
32000,32000.0,-0.228419495,-9.288880025,-0.054544067999999946,-0.4522796655,-0.205534365,-0.6356864870000001,-42.4441532,40.9565732,-125.294647,9.296910923215435,0.8110490436571447,138.48404235641607,24.89249999999981,30.41250000000014
32100,32100.0,0.39054488950000005,-7.710805495,-1.12924044,0.0213897705,-0.446979523,-0.40825653,-44.28237950000001,40.311584,-124.6337902,7.8048986627568615,0.6100448273306971,138.27386261730638,24.843691176470397,30.399455882353077
32200,32200.0,2.789952835,-7.54499577,-2.037239045,0.0388092045,-0.24319076700000006,-0.012026977549999998,-44.6664431,40.3363033,-123.426819,8.299770107582287,0.25884527824528464,137.31831354906367,24.794882352940988,30.386411764706022
32300,32300.0,3.828614815,-9.93321435,-3.3842224300000003,0.47791290049999996,-0.5478599535,0.011677552150000001,-44.2695619,40.3935238,-124.0785215,11.18098857902369,0.7306868401281716,137.7930053436771,24.746073529411568,30.37336764705896
32400,32400.0,1.2446136264999998,-8.3077896,-2.151209265,0.23881149350000003,-0.030511476,-0.1777832017,-45.04013,40.2845764,-123.95644979999999,8.706203909523492,0.3217729672106787,137.90113690423595,24.69726470588216,30.360323529411897
32500,32500.0,2.98022994,-12.88167125,-4.022515815,0.422032928,-0.182523345,0.4673965315,-43.6595156,40.9478749,-125.991364,13.866745052966007,0.6561459525313461,139.48747180376594,24.64845588235275,30.34727941176484
32600,32600.0,-1.1754478549999998,-8.753888850000001,0.8418998565000001,0.468540195,0.435761261,0.49466553,-42.670745700000005,41.511534999999995,-128.345797,8.953897370233022,0.8424471742566606,141.48023101973487,24.599647058823336,30.334235294117786
32700,32700.0,1.66437374,-9.5195614,0.5447173919999999,0.40552367799999994,0.12374267420000006,0.0413421632,-41.063537100000005,41.8322758,-130.443264,9.70523383116363,0.4570716136163434,143.0091241071754,24.550838235293927,30.321191176470727
32800,32800.0,1.92654416,-10.181317199999999,0.456375112,0.6170867839999999,-0.1432128924,0.022799682599999985,-41.10862342105264,41.70106515789474,-132.04024263157893,10.37333923387292,0.6376042544438374,144.44221193818942,24.50202941176451,30.30814705882366
32900,32900.0,0.83502808,-8.9945066,0.940722672,0.124725344,0.42307739,-0.0193786618,-41.2632749,41.2973015,-133.359681,9.087395004424453,0.4435606959240225,145.57807221656563,24.45322058823509,30.295102941176605
33000,33000.0,2.29357298,-9.6684785,0.7561309820000001,0.39721985,0.07473754860000001,0.281658944,-40.5374158,41.4875794,-134.438022,9.965800571484543,0.4959821347063959,146.4175259148273,24.40441176470568,30.28205882352955
33100,33100.0,1.5231139999999999,-9.447009199999998,0.35869750999999994,0.1984375,0.129705814,0.37540282799999997,-39.039609999999996,41.453552,-135.48737,9.58151540427344,0.4454024345601775,146.9670560087726,24.355602941176272,30.269014705882487
33200,33200.0,1.4570312200000002,-9.9972048,0.44751892,0.152844242,0.35596924,0.206024172,-37.6698299,41.99859620000001,-136.115116,10.113835340823188,0.4451180656660719,147.3440760858883,24.30679411764686,30.25597058823543
33300,33300.0,2.97304994,-10.0651946,1.67143252,-0.0821533188,0.6403991600000001,0.236709594,-36.00707979999999,42.1070872,-137.252354,10.631875422573588,0.6889205812887411,148.0128860434289,24.25798529411745,30.24292647058837
33400,33400.0,1.739852885,-12.5932341,-1.800696575,-0.516510775,-0.46273422299999994,-0.385937505,-36.19506810000001,42.705993299999996,-135.475005,12.863475926896648,0.7969027184419869,146.58596975278675,24.209176470588037,30.229882352941306
33500,33500.0,-1.8670745,-9.799028199999999,-0.296536268,-2.15105215,-0.2864906285,-0.79148637,-39.1867061,43.574065999999995,-128.37082099999998,10.008903285432703,2.311884129480424,141.11519251176816,24.16036764705862,30.21683823529425
33600,33600.0,1.995729075,-10.99247435,-0.4635879475,-1.262730415,-0.430779264,-0.617312626,-41.266020000000005,43.3580018,-121.588744,11.181945717840236,1.4734476332380269,135.52429446092395,24.11155882352921,30.203794117647192
33700,33700.0,0.370962525,-7.65256285,-0.489273089,-0.0382621764,-0.495970153,-0.6422416849999999,-43.913115000000005,42.52136289999999,-119.368898,7.683536864715762,0.8201680928960091,134.1095926076838,24.062749999999795,30.19075000000013
33800,33800.0,1.4134003000000002,-8.485862095,-2.836670675,0.1653640765,-0.7773643645,-0.30017928899999996,-44.9975586,41.5393068,-118.7080365,9.075052069501842,0.8582222484727244,133.57356988904138,24.013941176470386,30.177705882353074
33900,33900.0,1.56687398,-6.639155495,-2.156112675,0.05499954139,0.3078712435,-0.002656555899999996,-45.4807285,41.32118175,-117.9859175,7.164829496674697,0.330815263002794,133.02863381278868,23.96513235294097,30.16466176470601
34000,34000.0,5.14111937,-11.01282675,-4.008564700000001,0.945399492,-0.458323662,0.45476837200000003,-44.05708275,42.38662675,-119.76813999999999,12.803005597944715,1.1487956805555564,134.4698455695556,23.91632352941156,30.15161764705896
34100,34100.0,-1.0094695800000002,-7.64345859,-1.38596496,0.355357363,0.84161833,-0.1076904294,-44.62280375,42.321015,-120.50743125,7.9977873367355885,0.9420167050553436,135.29343220474027,23.867514705882144,30.138573529411893
34200,34200.0,4.03582765,-10.4789123,-2.4187012,0.371229564,0.13247375,0.07383270089999999,-43.312073,42.814254999999996,-121.31500225,11.491332721196086,0.576575015876366,135.74370331003175,23.818705882352727,30.12552941176484
34300,34300.0,-0.4781951800000002,-9.3004868,-0.5149505699999999,0.70913084,-0.060337826999999976,0.504731749,-42.8440095,43.1091305,-124.446486,9.398243392697246,0.8802564622947624,138.49567523116605,23.769897058823318,30.11248529411778
34400,34400.0,0.17829284199999998,-9.3803326,1.40304873,0.486167905,0.242839052,0.197833255,-41.85562125,43.49098225,-126.39884875,9.495319255538483,0.5822056702532001,140.07154903392166,23.72108823529391,30.09944117647072
34500,34500.0,2.45194083,-9.5186032,0.036317441000000006,0.457189952,0.308781435,-0.04409790041,-41.13655025,43.56727575,-128.454975,9.835893867333406,0.5547551909897143,141.74280683586363,23.67227941176449,30.08639705882366
34600,34600.0,1.8775741999999997,-9.506025300000001,0.848068229,0.147947688,0.31325225700000003,0.12144622699999999,-40.874101,43.3113095,-129.8522925,9.726819606109778,0.3736056806960392,142.85726615130508,23.62347058823508,30.0733529411766
34700,34700.0,2.0519333,-9.58605975,0.367610925,0.3273925725,0.1704025275,0.2578582725,-40.0249485,43.35708625,-130.677415,9.810139171791068,0.4511445108015663,143.38210107721181,23.574661764705674,30.06030882352955
34800,34800.0,2.089347875,-9.57587825,1.20378875,0.124195098,0.1557464625,0.24028015,-39.05601475,43.64051925,-131.74972,9.876140542332381,0.3125176254305995,144.18000819130398,23.525852941176254,30.047264705882483
34900,34900.0,1.320205725,-9.81291225,0.4660797125,0.088237765,0.315811155,0.1880836525,-38.062287,43.970108,-132.66334750000001,9.912412720527954,0.3788740676749473,144.8506217577285,23.47704411764684,30.034220588235424
35000,35000.0,2.187805175,-9.5983315,2.1644630250000003,0.081851961,0.584522225,0.479701995,-35.84671025,44.19708375,-133.4529875,10.083037014188573,0.7608415831481088,145.08016065270226,23.42823529411743,30.021176470588365
35100,35100.0,1.130466475,-12.097576,-1.6611708825,-0.25770187,0.0292587285,-0.397018435,-35.50529500000001,44.43092350000001,-133.389285,12.289786755140774,0.4812626573265438,145.00839668671102,23.37942647058801,30.008132352941303
35200,35200.0,0.29489136000000005,-9.024322625,-0.37968063,-1.872112275,-0.113220215,-0.750682815,-37.794876,45.0580595,-127.55317625,9.042514764304238,2.0202346799873294,140.4586221504272,23.330617647058602,29.99508823529425
35300,35300.0,0.6890373275,-12.021557,-0.4697609,-1.2326889,-0.2626266475,-0.74589539,-40.39154050000001,44.9253085,-120.81374875,12.053912385731838,1.4671143633781458,135.07768385616208,23.28180882352919,29.98204411764719
35400,35400.0,1.616497025,-7.94333275,-0.324314115,-0.28087616,-0.07380676249999997,-0.958408325,-44.12345875,43.32504275,-117.7135475,8.119958581849696,1.0105351226669663,132.96887627894552,23.23299999999977,29.96900000000013
35500,35500.0,-0.375183105,-6.4975394500000005,-1.0802803,0.2152709925,-0.80990982,-0.26652527000000004,-45.895003,42.47818075,-116.604235,6.605380880442579,0.8852332780760686,132.3151611141302,23.184191176470364,29.955955882353074
35600,35600.0,3.67682038,-7.5534364,-3.54996027,0.40115815,-0.367449955,0.45018464,-44.28749075,43.107605,-116.627502,9.124710805524273,0.7097107677657286,131.99115758611066,23.13538235294095,29.94291176470601
35700,35700.0,5.5526825,-10.152351300000001,-4.61071317,0.22795105,-0.5911544710000001,-0.08777312999999999,-42.8720092,43.7823484,-116.9891356,12.458694943582936,0.6544932703765911,132.06581596342332,23.086573529411535,29.92986764705895
35800,35800.0,1.1725479631578954,-14.541845,-3.9757095999999996,0.09501166,-0.5182647763157894,0.8037358368421053,-42.28363020000001,44.7909542,-118.8476568,15.340179275587644,1.0844637358962872,133.861897018282,23.037764705882125,29.916823529411893
35900,35900.0,-2.9691611631578954,-9.497774310526315,-0.5142613389473685,0.5274537736842104,0.3695437789473683,0.4439536605263158,-41.207580799999995,45.2124012,-121.377564,10.011329180383472,0.8106654822495114,135.92199775057978,22.98895588235271,29.903779411764837
36000,36000.0,2.139181010526316,-9.594353526315789,1.2251964336842107,0.4994225752631578,0.1915411693,-0.041357743684210524,-40.2642824,45.782776,-123.20556699999999,9.91633262588498,0.5389588938959042,137.46599097523873,22.9401470588233,29.89073529411777
36100,36100.0,2.0282898,-9.512131,-0.6394501,0.45602417,-0.2184143,-0.056655884000000004,-40.5429086,45.26062039999999,-124.588626,9.746973484335284,0.5087953805416283,138.61675940354613,22.89133823529389,29.87769117647072
36200,36200.0,1.22407985,-9.331375300000001,0.79766844,0.2293335,0.187448126,0.0718078613,-40.6900022,45.4953,-126.057128,9.44721488046018,0.3061012012861145,140.0567926984755,22.842529411764477,29.864647058823657
36300,36300.0,2.52879637,-9.3061185,0.6804702719,0.285850516,0.1868522625,0.510427857,-39.3923948,45.81665039999999,-127.601926,9.671144773697776,0.6142340056384158,141.18511688842145,22.793720588235058,29.8516029411766
36400,36400.0,2.65509648,-9.5020876,1.77007138,0.15518494,0.13311767800000002,0.3389801,-37.541199600000006,46.3177492,-127.956236,10.028901124388174,0.39733990609104497,141.16480848550614,22.74491176470565,29.83855882352954
36500,36500.0,1.67035524,-9.9249027,1.20576168,0.194610592,0.5334441959999999,0.189407352,-36.5884396,46.523132399999994,-128.467714,10.13688279131739,0.5989702584659737,141.4463865548087,22.696102941176232,29.825514705882483
36600,36600.0,2.691490125,-12.14307,-0.31562804124999994,-0.3988456625,-0.1494522075,-0.06198883125,-35.63446079999999,47.085265,-128.318478,12.454535811473935,0.435479808062599,141.25323079424453,22.647294117646823,29.81247058823542
36700,36700.0,0.20284471052631572,-9.753451684210523,-0.29940314631578946,-1.7152637578947367,-0.4591176889473684,-0.6831472336842105,-37.8298948,46.9796754,-123.051146,9.776067829094382,1.9028174949135048,137.03995383804823,22.598485294117406,29.79942647058836
36800,36800.0,0.84304197,-10.608084300000002,-0.19615783399999998,-1.33319852,-0.42508698100000003,-0.54349519,-39.928436,45.80116275,-115.74401999999999,10.645252783106756,1.5046202229603671,130.72387130185206,22.549676470588004,29.786382352941303
36900,36900.0,1.076121548,-8.1215792,-0.38290405,-0.169499206,-0.308012389,-0.7700714049999999,-42.75729557894737,44.15813268421052,-111.67417789473684,8.201710758041639,0.8541920412812108,127.47294195340695,22.500867647058588,29.773338235294247
37000,37000.0,0.8074287499999999,-8.1544433,-2.111938495,0.060916901749999995,-0.7637283525,-0.41949081200000005,-44.573975,43.1051638,-111.40350600000001,8.465198733071263,0.8741750763618514,127.49760449958613,22.45205882352917,29.760294117647184
37100,37100.0,1.955866205,-7.8938964500000015,-2.48448328,0.07007980275,0.039324951545,-0.2622085595,-45.4589842,42.4032586,-109.79858600000001,8.504467512995253,0.2844548792509943,126.17579832594477,22.403249999999762,29.747250000000125
37200,37200.0,3.186727935,-8.925791349999997,-2.88149945,0.5321846060000001,-0.5524406475,0.1796119665,-45.5865476,42.977600200000005,-110.955503,9.909383948159348,0.7888436392219419,127.42188821988876,22.354441176470342,29.734205882353066
37300,37300.0,1.48499224,-9.18987145,-2.58939899,0.349755857,0.05332565365,-0.035039521500000004,-45.3573608,43.4878544,-111.1972028,9.709755586742467,0.3822604903980651,127.72358498818464,22.305632352940933,29.72116176470601
37400,37400.0,2.98190692,-11.0899156,-3.75969084,0.08818664720000001,0.22861709050000004,0.3537261935,-44.101561,44.5852656,-112.599792,12.117671074481088,0.6074560417710361,128.8859892994829,22.25682352941152,29.70811764705895
37500,37500.0,0.901583868,-9.0308988,-0.06076965400000001,0.668218994,0.500631724,0.595492536,-44.108276399999994,45.58410600000001,-115.875546,9.148201584318064,1.0258765055194865,132.10109778169908,22.20801470588211,29.695073529411893
37600,37600.0,0.05355224600000001,-9.2119078,0.568667596,0.473278816,-0.1308532704,0.0055480956,-43.6172474,46.2921132,-118.17230320000002,9.237489379648755,0.4967817822222311,134.20178327199008,22.15920588235269,29.682029411764827
37700,37700.0,2.3790435800000003,-9.2506897,0.47026062,0.356524658,0.35064697200000006,-0.054534913600000005,-43.8461306,46.4544676,-120.274048,9.569555097291936,0.5043504229981888,136.18498892991394,22.11039705882328,29.66898529411777
37800,37800.0,1.86356812,-9.36705,0.533712752,0.306246948,0.402416992,0.28869324,-43.8958744,46.387634399999996,-122.248232,9.567289358591953,0.5828624187875551,137.92507831310346,22.06158823529387,29.65594117647071
37900,37900.0,2.27489928,-9.63472,0.546398924,0.27684327200000003,0.19553833199999998,0.285494992,-42.7767948,46.957092,-123.95416200000001,9.914733708711069,0.4432761200807908,139.28205240500114,22.012779411764456,29.642897058823646
38000,38000.0,2.13340456,-9.2983336,1.2069610400000002,0.184805296,0.060678102000000005,0.213916016,-42.0803836,47.712707,-124.374084,9.619042374967913,0.2899674399159024,139.7003344872893,21.96397058823505,29.629852941176594
38100,38100.0,1.52120054,-9.5296142,1.02643739,0.143475336,0.275009152,0.363903808,-41.320437285714284,47.89857466666666,-125.04032761904762,9.705202749124537,0.4786651599557826,140.13119254540527,21.91516176470563,29.616808823529528
38200,38200.0,3.07766724,-10.629510400000001,1.36258544,-0.046994018,0.5185211080000001,0.34408875200000005,-39.871520600000004,48.4106448,-126.721802,11.156675701977171,0.6264211558148849,141.39244864765016,21.866352941176213,29.603764705882483
38300,38300.0,0.95448914,-12.8740782,-1.55858462,-0.8987823359999999,-0.567828364,-0.533694464,-40.743028,48.46763605,-124.55230625,13.021596847440708,1.1917102465576137,139.72306169196466,21.817544117646804,29.590720588235417
38400,38400.0,-1.4225054052631578,-10.334358578947368,-0.2441494568421053,-1.9002798157894736,0.20426458894736846,-0.5989331705263158,-44.31755085,46.7228706,-117.11608825,10.472213275234056,2.0062885803380683,133.65409096186477,21.768735294117388,29.57767647058836
38500,38500.0,1.2113869,-9.394998900000001,-0.2117820725,-0.9936950775,-0.4855323775,-0.631105041,-46.363907,44.224701700000004,-111.43966499999999,9.47908397740216,1.2774302308510608,128.54707971480528,21.71992647058798,29.5646323529413
38600,38600.0,0.578245531,-7.486582285,-0.8390052720000001,0.20845641899999998,-0.436317446,-0.6109741285,-49.0742495,42.200624,-109.389799,7.556802472967012,0.7841100052744528,127.10368394466222,21.67111764705857,29.551588235294236
38700,38700.0,1.547238905,-8.348081149999999,-2.544754755,0.36392669899999996,-0.89305419,-0.28052749450000003,-49.7952269,41.46919275,-109.1677095,8.86405536394603,1.004363993804923,126.95217391123705,21.622308823529156,29.53854411764718
38800,38800.0,3.127050085,-8.993735800000001,-3.22200702,0.2505279535,0.0020339974999999955,0.111379239,-50.3999335,41.4471436,-109.787595,10.060752493548415,0.28384339963336863,127.71589958202401,21.573499999999736,29.525500000000118
38900,38900.0,3.491867845,-7.712358875,-4.05950463,0.17947616849999998,-0.19237213400000006,-0.372937012,-50.147859000000004,41.2454215,-109.5354481,9.424402603057915,0.5692684830736742,127.33438925810059,21.524691176470327,29.512455882353066
39000,39000.0,2.89744568,-15.88388705,-5.89405905,0.4069122345,-0.49229965049999996,0.90319443,-49.9772641,42.3066711,-111.8441791,17.382212264041268,1.1088473871035869,129.6025945704273,21.47588235294091,29.499411764706007
39100,39100.0,-3.275625136842105,-7.505542157894736,0.1576305236842105,0.4573685615789474,0.3551330570526316,0.3715731894736842,-49.7739411,42.7059169,-115.82283075,8.294683517150375,0.7702973864394315,133.1021943541073,21.427073529411498,29.486367647058945
39200,39200.0,2.87523655,-10.0622025,-0.3796768150000001,0.6253967300000001,0.17253112550000002,0.0024566650000000106,-48.42483505000001,44.1783142,-117.46871775,10.558592313926711,0.6694964303722719,134.5198862592526,21.37826470588209,29.473323529411893
39300,39300.0,2.860878,-9.603714,-0.0307159425,0.407546995,-0.14598083650000002,0.040275573,-48.815307399999995,43.809509999999996,-119.45816200000002,10.022187139304704,0.4422996265555572,136.2808153342935,21.32945588235268,29.460279411764827
39400,39400.0,0.8784790000000001,-9.1482165,0.589378355,0.335121155,0.166679385,0.15372467,-48.7390136,43.71429439999999,-121.451724,9.21353136638254,0.40767342574213294,137.9744969566321,21.280647058823266,29.44723529411777
39500,39500.0,2.2234192000000004,-9.490585000000001,0.29548645,0.38944245,0.187446595,0.47437287,-47.9152472631579,44.10569063157895,-123.44537078947369,9.759061642511913,0.642008307692481,139.57064354164342,21.23183823529385,29.43419117647071
39600,39600.0,1.52012635,-9.661171000000001,1.16638185,0.151885985,0.23751068,0.25652313,-46.799316299999994,44.45541420000001,-124.78073300000001,9.849603200277931,0.3813864031407346,140.4873493458125,21.18302941176444,29.421147058823646
39700,39700.0,1.4919891,-10.012519500000002,0.883857735,0.12365723,0.55815885,0.150527955,-46.228179600000004,44.097748100000004,-126.09756599999999,10.161815321634199,0.5916750089660937,141.35860075498908,21.134220588235024,29.40810294117659
39800,39800.0,3.438235455,-12.35112835,0.226051321,-0.314006045,0.21972274649999998,-0.08430328314999999,-45.63858,43.5801693,-127.650147,12.830827025152654,0.41113548192483146,142.3962430919075,21.08541176470561,29.395058823529528
39900,39900.0,0.11939011499999985,-9.62999445,-0.7604156575000001,-1.819759365,-0.556428525,-0.904562375,-47.6472471,42.1920779,-123.443603,9.70053311278447,2.107317283328694,138.8841694873734,21.0366029411762,29.38201470588247
40000,40000.0,0.4281295805,-11.43599495,-0.314318081,-1.4431862,-0.08819198449999999,-0.590785235,-49.9458315,40.21972570000001,-117.8265366,11.449832050272088,1.562247282325833,134.14666488104854,20.987794117646786,29.368970588235413
40100,40100.0,1.08970645,-8.3871591,-0.08579330549999999,-0.4062042315,0.005715943000000001,-0.71542206,-51.9398497,37.8919995,-115.576323,8.459096933255577,0.8336103972185289,132.2553633535812,20.938985294117373,29.355926470588354
40200,40200.0,0.9291793620000001,-7.161446405,-1.513694,0.244355775,-0.6375511065,-0.14406585770000002,-53.0227662,36.646423299999995,-115.03677340000002,7.3880929932391926,0.7026381299842888,131.86299589436555,20.89017647058796,29.342882352941288
40300,40300.0,2.869016265,-8.39991455,-3.359016475,0.322435,-0.13863220115,-0.003717803815,-52.82989499999999,36.882629,-115.160217,9.490915994573648,0.3721650387212463,131.95909923490603,20.841367647058547,29.329838235294236
40400,40400.0,4.299318805263158,-10.688259,-3.757953805263158,0.1714212505263158,-0.6360031999999999,0.07442113121052632,-52.5709534,37.082977,-115.8255005,12.12834789292348,0.6681362671135022,132.49301683482364,20.792558823529134,29.316794117647177
40500,40500.0,-1.1358825748,-8.326528999999999,-0.08758240400000006,0.61218872,0.320394898,0.239056396,-52.7622986,36.9941717,-116.87133899999999,8.466659391750277,0.7560761366567984,133.45915104555237,20.743749999999718,29.303750000000118
40600,40600.0,3.21510318,-10.3632751,-2.10900579,0.19013366760000003,0.7285980040000001,0.060513305000000024,-51.2265018,38.1565853,-118.553926,11.117514911309602,0.7963982133778236,134.66673373233348,20.69494117647031,29.29070588235306
40700,40700.0,1.87338258,-9.5631352,0.48703001799999995,0.42320862,0.123309326,0.59442748,-50.5044554,39.4203194,-122.40112260000001,9.83044474839032,0.7420141816569483,138.15477672267724,20.646132352940896,29.277661764706
40800,40800.0,0.002319338000000004,-9.7053559,0.5440002443999999,0.73043212,-0.24931335,0.240753172,-49.5130925,39.9426266,-124.27734550000001,9.73758690225266,0.8086228829730957,139.61310419929066,20.597323529411486,29.26461764705894
40900,40900.0,1.41921082,-9.2281832,-0.585577384,0.325845328,0.2560455344,-0.193652348,-49.41650429999999,39.987945700000004,-126.163023,9.367201041656363,0.4781474311790003,141.27331816686203,20.54851470588207,29.25157352941188
41000,41000.0,2.0701278052631578,-9.927407315789477,0.6335714347368421,0.2578301652631579,0.31158125894736843,0.2587055415789474,-48.882904100000005,39.853666700000005,-128.551328,10.16385080813711,0.4801024443584391,143.18980333442033,20.499705882352657,29.238529411764823
41100,41100.0,2.078517925,-9.348252699999998,0.011121368250000005,0.2808952345,0.253116607,0.3466964725,-47.614287899999994,40.42778060000001,-130.572896,9.577228150291043,0.5138732086178119,144.74396470706768,20.450897058823248,29.225485294117764
41200,41200.0,1.54663775,-9.7871105,1.085756655,0.165840909,0.209441378,0.205765532,-46.25785820000001,40.5412302,-132.35488850000002,9.968188267304539,0.3388452130549812,145.9493338797212,20.402088235293828,29.212441176470705
41300,41300.0,2.027157555,-9.91867325,0.637916565,0.0813644411,0.479961399,0.276872254,-45.1941695,40.80139115,-133.836289,10.148261543888005,0.5635772423064277,147.03547170941764,20.353279411764422,29.199397058823646
41400,41400.0,2.382391355,-12.141026199999999,0.5211433520000001,-0.3501159575,-0.1379379276,-0.1487022424,-44.29573065,40.82969620000001,-134.836354,12.392752559254172,0.4176359965456147,147.68216435086833,20.30447058823501,29.18635294117659
41500,41500.0,-0.5323654179999999,-9.18496985,-0.970748145,-1.652561235,-0.2608764625,-0.697577654,-45.8229828,40.8240496,-130.396498,9.272374070959737,1.8128185815639857,144.11672019351548,20.255661764705593,29.17330882352953
41600,41600.0,0.8931457575,-11.391344199999999,-0.20394057250000006,-1.276842455,-0.3145668025,-0.538213348,-47.741622,41.070175600000006,-125.7033515,11.432390847798375,1.421431375204505,140.59661859088357,20.20685294117618,29.16026470588247
41700,41700.0,0.89583743,-8.166234,-0.223339845,-0.248439028,-0.04094695990000001,-0.6947571020000001,-49.5873264,39.96490479999999,-122.711261,8.227746140760564,0.7470249358744131,138.25397584134996,20.158044117646767,29.147220588235413
41800,41800.0,0.74056852,-7.283375579999999,-1.292703232,0.340971377,-0.75243378,-0.38327027,-51.63024865,38.44436735,-122.91908149999999,7.440176762831151,0.9205362215552768,138.75430130635326,20.109235294117354,29.13417647058835
41900,41900.0,2.75888673,-8.3577774,-3.0257492000000004,0.42257079999999997,0.031591794999999985,0.292422485,-51.27708475,38.60099750000001,-122.6296222,9.310031211998757,0.5208112033012152,138.4103580073727,20.06042647058794,29.121132352941288
42000,42000.0,6.0409728000000005,-10.177603,-4.26032109,0.0402526866,-0.568043515,-0.354081727,-50.77064625,38.8231665,-123.28079225,12.590877722507004,0.6842025820192899,138.86342501722615,20.011617647058532,29.108088235294233
42100,42100.0,-2.78237451,-12.7450242,-0.4755584499999999,0.8282226580000001,-0.10816344999999994,0.87991636,-51.09596430000001,38.885498350000006,-126.254195,13.21719465677983,1.2434645979313912,141.64404859106452,19.962808823529123,29.09504411764717
42200,42200.0,-1.99228822,-5.94274443,3.41728512,0.266506955,1.78927763,-0.08211975199999999,-49.07638625,39.579162700000005,-129.3452445,7.4247339571269855,1.8111156117445928,143.89311585389302,19.913999999999703,29.082000000000114
42300,42300.0,5.71632531,-12.3347867,-0.053106700000000284,0.608242788,-0.331449889,0.46808319,-47.23220675,39.78782635,-131.071698,13.687702317162822,0.8454292221674791,144.89219686869762,19.86519117647029,29.068955882353052
42400,42400.0,2.427223225,-9.96313825,0.28261947749999994,0.5598869375,0.12699127,-0.030033111749999997,-46.73301669999999,39.4385525,-133.88679399999998,10.289135040519824,0.5756634014728579,147.19063013416442,19.816382352940877,29.055911764706
42500,42500.0,0.9278640925,-9.14641975,1.5808716,0.1849060075,0.46547699,0.11005020375,-45.88424850000001,38.75747715,-136.312866,9.333013354324104,0.5157247478747637,148.9587805002461,19.767573529411465,29.042867647058934
42600,42600.0,1.994773825,-9.99965275,0.1254997245,0.2229919475,0.56322096,0.445339195,-44.14642290000001,39.2053221,-138.44047450000002,10.200260399572946,0.7528726330835274,150.50499134175269,19.71876470588205,29.02982352941188
42700,42700.0,2.62265015,-9.21466075,1.560230225,0.100757601,0.34564209,0.28022765,-41.232377899999996,39.86160235,-139.667589,9.708067712752754,0.4563837056865848,150.98382951454408,19.669955882352642,29.016779411764823
42800,42800.0,1.6943016,-9.8386495,0.23593903,0.0815849325,0.568809525,0.15799331249999998,-39.8571772,39.3083965,-140.6684875,9.987866152722685,0.5971719323507558,151.39807453926227,19.621147058823226,29.00373529411776
42900,42900.0,3.59439845,-13.08159225,-0.2318344124999998,-0.43453598,-0.15796661400000006,-0.16106415065,-38.104611904761896,39.68803728571429,-141.36941238095238,13.589413844370014,0.5054665375597387,151.6984654749723,19.572338235293813,28.990691176470698
43000,43000.0,-2.28247069,-9.9014371,-0.97440188,-1.70625608,-0.027948000000000032,-0.7818969720000001,-40.89203,40.991209999999995,-135.26154,10.226346753528974,1.8922187775504573,147.13300655514587,19.523529411764397,28.977647058823642
43100,43100.0,0.921691904,-9.9581788,0.5866211060000001,-1.21920776,-0.23460998800000002,-0.435690304,-41.262817,42.0166,-130.96771,10.026644454552333,1.3174762084026292,143.59859262882625,19.474720588234987,28.964602941176587
43200,43200.0,1.53796078,-8.167553999999999,-0.523086548,-0.171636966,-0.171331784,-0.66578066,-42.903137,41.915894,-127.56653,8.328185579400728,0.7138513682748201,140.96397025659041,19.425911764705575,28.951558823529524
43300,43300.0,2.3742493,-9.319409199999999,-2.86246338,-0.0303833004,-0.77279052,-0.40415650000000003,-44.752502,40.98053,-127.49023400000002,10.03838443933939,0.8732089647398171,141.1947238380941,19.377102941176158,28.938514705882465
43400,43400.0,0.840292374,-7.81823428,-1.53368228,0.24999389800000002,-0.1104064958,0.1506408716,-45.333861999999996,40.603638000000004,-127.14538600000002,8.011648709382541,0.318520530473113,140.9601491335728,19.32829411764675,28.925470588235413
43500,43500.0,4.65161434,-9.8801298,-3.95589598,0.36036072,-0.493261712,0.079690552,-44.65332,40.8844,-127.33153999999999,11.616698011402034,0.6204257464175027,140.99210697466012,19.279485294117336,28.91242647058835
43600,43600.0,-2.89537656,-9.262657175,-0.5725258000000001,0.6055343825,0.8222313004999999,0.2617477429,-44.854735999999995,40.7959,-128.43933,9.761602677659454,1.0619970571232482,142.03138487421927,19.230676470587927,28.899382352941288
43700,43700.0,3.078389725,-8.36052625,1.172966745,0.38507156,1.23123777,0.177851108,-42.819214,41.078185999999995,-130.89905,9.049130716188813,1.30779750636314,143.7200881697854,19.18186764705851,28.886338235294232
43800,43800.0,3.500967375,-10.80601655,0.1576408391,0.619436666,-0.4022346470000001,0.3958625810000001,-41.171265000000005,40.982056,-133.02002,11.388403026939928,0.8453747574023839,145.15139577864127,19.133058823529094,28.87329411764717
43900,43900.0,0.8204208359999999,-9.4373834,0.33086471500000003,0.591410825,-0.13048934999999998,0.12528304899999998,-40.986633000000005,40.42511,-135.56519,9.483655978357866,0.6295952022206311,147.2820910461448,19.084249999999685,28.86025000000011
44000,44000.0,0.734221645,-9.05670385,0.317755127,0.366007996,0.437353521,-0.035726166549999994,-40.600586,39.953613,-136.68213,9.093367169127005,0.5714301885348576,148.07668093469027,19.035441176470272,28.84720588235305
44100,44100.0,1.751342765,-9.30623355,1.1789489675,0.330052948,0.468141185,0.3249191275,-39.730835,39.483643,-138.77106,9.545335841422975,0.6587363149918816,149.64927132422756,18.98663235294086,28.834161764705996
44200,44200.0,1.0039993275,-9.3835126,0.6790420575,0.309493253,0.529495244,0.262068179,-38.172913,39.19525,-139.92767,9.463547198898464,0.6671542194477328,150.24377438382254,18.93782352941145,28.82111764705893
44300,44300.0,1.9323947526315788,-9.725595157894736,0.8328584321052632,0.15919976210526315,0.5911784684210526,0.24525531894736846,-36.027527,38.996887,-140.62653,9.951634378783234,0.6597673783686321,150.3148723089881,18.889014705882033,28.808073529411875
44400,44400.0,3.0275146900000003,-10.1178726,0.95293582,-0.045184326500000004,0.55091858,0.18984527399999998,-34.373474,39.558409999999995,-141.3269,10.605907690831721,0.5848490162340662,150.73054163031054,18.84020588235262,28.795029411764816
44500,44500.0,2.18595114,-12.523682,-1.64501805,-1.16840208,-0.712597666,-0.5007766770000001,-34.47113,40.12451,-140.69824,12.822476874253068,1.457558036880951,150.31377130959956,18.791397058823208,28.78198529411776
44600,44600.0,-2.24104164,-10.5137573,0.7515853860000001,-1.80170286,0.097425847,-0.604321295,-38.056946,41.726684999999996,-134.08813,10.787150940410276,1.9059314620092465,145.49595866151418,18.742588235293795,28.768941176470694
44700,44700.0,0.989324955,-10.0128797,-0.10493774200000006,-0.921580506,-0.21246032899999998,-0.82152253,-40.080259999999996,42.09442,-128.93219,10.066950423981151,1.2548574490342297,141.4279924732021,18.693779411764385,28.755897058823642
44800,44800.0,0.5605331600000001,-7.00828242,-1.11099239,0.2771637,-0.5738983,-0.8491195739999999,-43.33190820000001,40.591659,-127.2049705,7.120260914314108,1.06341501305785,140.37978203262685,18.64497058823497,28.742852941176576
44900,44900.0,1.70034714,-7.6219086150000015,-2.49370198,0.34757919049999997,-0.9383751085,-0.0659828183,-45.620728,39.657593,-127.11487,8.198325647501731,1.0033183714969682,140.75569502126913,18.596161764705556,28.72980882352952
45000,45000.0,4.732540350000002,-10.1622829,-3.992164425,0.5490135100000001,-0.5756523135,0.376158902,-45.2297972,40.01708915,-127.46925049999999,11.902020410299384,0.8803617491843907,141.05148956836157,18.547352941176143,28.716764705882458
45100,45100.0,1.4698494050000002,-6.09764927,-0.980448153,0.3174324077,-0.16222305299999995,-0.433177186,-46.02149975,39.26048295,-126.8070955,6.36676017691635,0.5736878279064599,140.49703889451138,18.49854411764673,28.7037205882354
45200,45200.0,3.9118134815,-14.56737375,-6.378236385,0.2531936635,-0.8169937214999999,0.5247627305,-44.84184305,39.5674134,-129.19273,16.394329461857346,1.0050512154230284,142.36268245698662,18.44973529411732,28.690676470588347
45300,45300.0,-1.6997818,-7.7271323,0.3178131050000001,0.449996944,-0.011333465350000016,0.41524657950000005,-43.87306075,39.29001015,-130.9944125,7.933907036961693,0.6271412275276129,143.6248214164946,18.40092647058791,28.677632352941284
45400,45400.0,0.8726059099999999,-9.97510875,-0.01712951649999997,0.7041709884999999,-0.4720069925,0.006828308200000008,-43.4932709,38.9098357,-132.248917,10.029780056478966,0.8487690814947937,144.55246916582814,18.35211764705849,28.66458823529423
45500,45500.0,1.4704437,-10.153777999999999,-0.16659546,0.5508270000000001,-0.49432373,0.17663574,-43.594055100000006,38.8088995,-133.05809349999998,10.261050940105811,0.7608984942917554,145.29635373052898,18.30330882352908,28.65154411764717
45600,45600.0,0.7557678000000001,-9.380463,1.0999451,0.27172852,0.028717041000000002,0.08502197,-43.3985137,38.43360885,-134.04380700000002,9.474922178303096,0.2861639257626072,146.0422109418704,18.254499999999663,28.63850000000011
45700,45700.0,1.3926392,-9.683319000000001,0.07043457,0.35801697,0.05429077,0.26504517,-42.62199329999999,38.343812299999996,-135.188674,9.783203556391367,0.44874556338252825,146.8430175800819,18.205691176470253,28.62545588235305
45800,45800.0,2.4077759,-9.376862,1.5895538,0.14283752,0.11714172,0.27676392,-41.64688095,38.06625325,-135.674968,9.810688407790721,0.33275066806555803,146.93945806352738,18.15688235294084,28.612411764705985
45900,45900.0,1.3866425,-10.085541000000001,0.40802002,0.23977661,0.25561523,0.28422546,-40.2886201,38.5077666,-136.82571199999998,10.188591415019447,0.4512383855826725,147.7406853257051,18.108073529411424,28.59936764705893
46000,46000.0,2.807602,-10.609879,1.4051971,-0.09365845,0.2960968,0.13082886,-39.123000700000006,38.250808899999996,-137.972262,11.064661778603694,0.33698873992396555,148.42533944156503,18.05926470588201,28.586323529411867
46100,46100.0,1.5434723,-11.528061,-1.7335968000000002,-0.9085846,-0.6178894,-0.54029846,-39.84588725,38.62472525,-135.98129450000002,11.759415590307135,1.2244328123126609,146.869110274028,18.010455882352602,28.57327941176481
46200,46200.0,-2.2537384,-10.884018,0.22964478,-1.9248505,-0.05757141,-0.71606445,-42.8171525,39.0065766,-129.209211,11.117280302526323,2.0545345485421853,141.59759573146874,17.961647058823193,28.560235294117756
46300,46300.0,2.1827240000000003,-9.749161,-0.14624023,-0.96183777,-0.038391113,-0.74057007,-44.83703635,38.77662700000001,-125.005115,9.991586984506887,1.214516283108529,138.3484004900647,17.912838235293776,28.54719117647069
46400,46400.0,1.5901489,-7.472275,-0.73880005,0.07145691,-0.5305481,-0.6532135,-47.246016499999996,37.097244,-122.99697875,7.6752389352824855,0.8445562461924061,136.881896389026,17.864029411764363,28.53414705882364
46500,46500.0,1.0909576,-8.531708,-2.591919,0.05015564,-0.7286835,-0.10992432,-48.2084672,36.6937252,-121.7066926,8.983221804276168,0.7386329179799138,135.95222597743745,17.81522058823495,28.521102941176572
46600,46600.0,3.4624175999999998,-7.878097500000001,-2.4279175,0.40701294,-0.11828613,0.032821655,-48.3033757,36.6073607,-121.2710574,8.941338783599594,0.4251216330825327,135.57282522895875,17.766411764705538,28.50805882352952
46700,46700.0,4.0789337,-10.14061,-4.9107056,0.29730225,-0.5060425000000001,-0.20153809,-47.944947,36.796417100000006,-121.57257299999999,11.982683371889912,0.6205523679611259,135.76667933980013,17.717602941176125,28.495014705882454
46800,46800.0,-1.3391571000000002,-10.482986,-0.66218567,0.7425841999999999,0.25456238,0.7721100000000001,-47.71499615,37.0198826,-123.16367949999999,10.588901126945599,1.1010845342211035,137.17323081848454,17.668794117646712,28.4819705882354
46900,46900.0,0.333251958,-7.69463113,2.94808353,0.362165835,1.372120675,0.0370796205,-46.5569305,37.781525099999996,-124.515308,8.266613470118436,1.4213029344642518,138.19938015945436,17.6199852941173,28.46892647058834
47000,47000.0,3.4788848,-10.8661222,0.4947395323,0.410315705,0.470693211,0.4516784695,-44.729383500000004,38.43429575,-126.96159375,11.420636004603429,0.7725825974899692,139.98986689418942,17.571176470587886,28.45588235294128
47100,47100.0,2.2422218,-10.2002951,1.070722962,0.548697655,-0.087021639,0.222962188,-44.0500637,38.889999100000004,-128.12469850000002,10.498877262043044,0.6005599234209112,140.95668073210427,17.522367647058473,28.442838235294218
47200,47200.0,0.9399520865,-9.17401295,0.07109680175,0.33187102,0.03005752625,-0.1475295985,-44.3637088,38.1517032,-129.98160900000002,9.22382992190459,0.3650215402915986,142.54441940729401,17.47355882352906,28.429794117647162
47300,47300.0,2.15908207,-9.661648575,0.6664039375,0.333310703,0.1813652015,0.216578675,-44.03968935,38.41651905,-130.1880605,9.922427154636818,0.4369344993997875,142.70348283167925,17.424749999999648,28.416750000000103
47400,47400.0,2.10574114,-9.51524625,0.02033920275,0.29921570000000003,0.08822021599999999,0.31793136549999995,-42.89031975,38.7131503,-131.370014,9.745548080835746,0.4461776791187901,143.51441020137472,17.375941176470235,28.403705882353048
47500,47500.0,2.11424557,-9.35567175,1.39431303,0.0659255985,0.242842106,0.259831239,-41.6443633,39.36279255,-132.18734650000002,9.693213785357127,0.36219438092624573,144.07352540871256,17.327132352940822,28.390661764705982
47600,47600.0,1.96986998,-9.619514500000001,1.25388484,0.07188415599999999,0.5062744109999999,0.218916324,-40.6643695,39.29512020000001,-133.34861750000002,9.899209232429373,0.5562519110523481,144.8432250342938,17.278323529411413,28.37761764705893
47700,47700.0,2.9769927700000003,-11.773697,0.514077759,-0.195599369,-0.0639572137,0.07404327429999999,-39.505165631578954,39.668434947368425,-133.37602684210526,12.156428193547358,0.22908085824423055,144.64927117679596,17.229514705881993,28.36457352941187
47800,47800.0,-0.16527405,-10.101943599999998,-1.77501527,-1.24200287,-0.34624633899999996,-0.7595199659999999,-41.3658135,40.2049269,-130.38123900000002,10.263411353563932,1.4969668467267117,142.57230516675,17.180705882352587,28.35152941176481
47900,47900.0,-0.45281525,-11.4488102,-0.505857851,-1.45038147,0.11692809970000001,-0.486067201,-43.31619240000001,39.806366499999996,-125.2104186,11.476518359202972,1.5351570883004289,138.34207335393899,17.13189705882317,28.338485294117753
48000,48000.0,1.25185398,-8.8022522,0.40083466,-0.276351925,0.180097963,-0.90833588,-45.451201,38.5481253,-122.70798,8.899988303998173,0.9747132279407033,136.4151306376071,17.083088235293758,28.32544117647069
48100,48100.0,0.212289426,-7.53655698,-1.49357449,0.149967955,-0.715681465,-0.422053523,-47.5640866,37.0773317,-121.4317355,7.686201817184483,0.8448181300897721,135.5829943100029,17.034279411764345,28.312397058823628
48200,48200.0,3.73643342,-8.6383777,-2.51207125,0.09532470900000001,-0.238342288,-0.136669925,-48.495483,36.794892,-120.59982600000001,9.741317038639037,0.291615598346714,135.09254528730978,16.985470588234932,28.299352941176572
48300,48300.0,3.20995641,-9.109794500000001,-2.90615689,0.428750613,-0.59637602,0.182914735,-48.47763130000001,36.8151855,-120.9196471,10.0869984069365,0.7569536196440305,135.37727045505702,16.93666176470552,28.286308823529517
48400,48400.0,1.89529723,-7.82218937,-2.340402248,0.08924713199999999,0.0655731204,-0.1696853608,-48.3380125,36.596527,-120.6477335,8.476774175271307,0.23677354523077784,135.0250309316065,16.887852941176103,28.27326470588245
48500,48500.0,4.59499204,-13.574253899999999,-4.94661541,0.227951049,-0.15204925000000002,0.5478744470000001,-46.756285299999995,37.5248723,-123.045041,15.200518087387,0.7101017377472761,136.87357294681252,16.839044117646694,28.26022058823539
48600,48600.0,-1.9145935319999998,-7.80237342,0.35115737950000003,0.3723945725,0.25923615645,0.4368217475,-46.14587210526316,37.86532789473684,-125.6393405263158,8.107924379784539,0.6382473817868983,139.09883575410424,16.79023529411728,28.247176470588336
48700,48700.0,0.964902457,-9.17293335,0.4690620425,0.5983344925,0.28938980350000004,0.014020537949999998,-44.8585506,37.920685999999996,-127.1936804,9.242541570645123,0.6663209574169167,140.10180797303144,16.741426470587868,28.23413235294128
48800,48800.0,1.6585059949999998,-9.246682400000001,-0.23907699250000006,0.4049407925,0.2285644505,0.05556030285,-44.639815899999995,37.720335999999996,-128.447495,9.402250473193176,0.4700442158754092,141.1181002114734,16.692617647058455,28.221088235294214
48900,48900.0,1.70238186,-9.52231275,0.529337315,0.2715675335,0.266809843,0.252097322,-43.9507305,37.954712,-129.725114,9.690200684609296,0.4566170123959161,142.12965056251008,16.643808823529042,28.208044117647162
49000,49000.0,2.080311555,-9.43408805,0.581830614,0.3192482005,0.39996871549999996,0.47506561,-42.5511936,37.9975127,-131.7552215,9.679823422022652,0.6986345703369201,143.57542539477987,16.59499999999963,28.1950000000001
49100,49100.0,2.209114815,-9.8038121,0.861957546,0.152638241,0.473260495,0.30707626250000003,-40.93269400000001,38.47801215,-133.31390349999998,10.087376295289653,0.5851785323624338,144.66740554305485,16.546191176470217,28.181955882353037
49200,49200.0,2.758409895,-9.9956991,0.71949994,-0.139406588,0.7532623254999999,0.0480476379,-39.5733635,38.8155367,-134.430161,10.398564545040124,0.7714713127784986,145.41035196830137,16.497382352940804,28.16891176470598
49300,49300.0,0.744757078,-11.8464844,-0.07201537599999999,-1.15082394,-0.374166868,-0.93337706,-40.364304,38.8492571,-132.605739,11.877979910730405,1.5285449796986597,143.95447687226303,16.44857352941139,28.155867647058926
49400,49400.0,-1.65590518,-9.6577029,-0.34113464,-1.36835022,0.34020386020000004,-0.457205198,-42.9066466,39.0521999,-128.72932699999998,9.830088188315372,1.4917741761917265,141.1995058255093,16.399764705881978,28.142823529411864
49500,49500.0,0.63917236,-9.4130186,-0.35022277799999996,-0.734521488,0.0608947742,-0.457412716,-43.7240603,38.827591,-125.05569325,9.441198086815998,0.8696805599056342,138.05196544707894,16.350955882352565,28.129779411764805
49600,49600.0,0.9796356,-8.2420072,-1.5513946200000002,0.055691529000000004,-0.326867676,-0.35855712,-45.219040299999996,38.250121500000006,-124.064868,8.446443298723736,0.4889598833798405,137.47701528677928,16.302147058823152,28.116735294117746
49700,49700.0,1.9330048,-8.7771116,-2.2320740000000003,0.01031799312,-0.1144470196,-0.29144898399999997,-46.011199,37.7530671,-124.093172,9.260781372106953,0.3140737320788281,137.62798931178042,16.253338235293743,28.10369117647069
49800,49800.0,2.1010712000000002,-8.267865200000001,-2.27923884,0.18928528,-0.208831784,0.005767822320000001,-46.4820095,37.72491465,-123.53576499999998,8.834400527462767,0.2823066303167014,137.27649942927607,16.20452941176433,28.090647058823627
49900,49900.0,3.4168676736842105,-9.452977157894736,-2.9489031052631582,0.2774497631578947,-0.18170085631578947,-0.17115382,-46.72454875,37.539215999999996,-124.2106629,10.47965132620576,0.3752785228754651,137.91549764708876,16.155720588234914,28.077602941176572
50000,50000.0,0.93114472,-8.87857075,-0.7708320625,0.6376457375,0.0449714665,0.4546661375,-46.62269620000001,37.341613,-124.68719409999999,8.96114755504568,0.7849480542213678,138.25700468719268,16.1069117647055,28.06455882352951
50100,50100.0,3.452842725,-10.91034675,-2.9839743999999997,0.24030304,0.50408935,0.1950073275,-45.01838745000001,37.8537751,-127.02758700000001,11.865785082259775,0.6206404368390109,139.9845241826327,16.058102941176088,28.05151470588245
50200,50200.0,-0.07232664750000006,-8.68344125,-0.28301239,0.557220465,0.4409751875,0.4783706675,-43.807983380952386,38.08557404761905,-128.9407619047619,8.722828500269085,0.8630256556533504,141.40535867382053,16.009294117646675,28.03847058823539
50300,50300.0,1.1589012,-9.7201275,1.22742845,0.471729275,-0.1329345725,0.24933243,-42.690124,38.2778932,-131.73248,9.867329930810474,0.5502834749980992,143.67018797051273,15.960485294117264,28.025426470588325
50400,50400.0,1.977416975,-9.73539325,-0.13666152874999998,0.4256668075,0.11021042,-0.149078365,-42.4798588,37.5634762,-133.317874,9.94397477347712,0.4685132759317115,144.87661050403162,15.911676470587851,28.012382352941273
50500,50500.0,1.6528839400000002,-9.3820118,0.947308347,0.18491516300000002,0.485934452,0.123152162,-42.28973320000001,37.358703799999994,-134.435118,9.573799303586512,0.5352049186739042,145.79752122928682,15.862867647058444,27.999338235294214
50600,50600.0,1.86548461,-9.4559919,0.6157119600000001,0.196633907,0.264678956,0.263130191,-41.04644860000001,37.3568722,-135.55694599999998,9.65891703265469,0.42207547737428175,146.47883191181108,15.814058823529034,27.986294117647155
50700,50700.0,2.13482974,-9.629327499999999,0.87236634,0.16797027899999997,0.25093230899999996,0.306277466,-39.6670526,37.4291992,-136.684878,9.902852625510649,0.4302853027191131,147.163851084641,15.765249999999618,27.973250000000096
50800,50800.0,1.45416715,-9.598686,1.0268020400000002,0.144532779,0.505955506,0.23755951,-38.130798,37.462769,-138.00811399999998,9.76246116397328,0.5778710383468695,147.99885722732043,15.716441176470209,27.960205882353037
50900,50900.0,2.73888855,-10.468138,1.42424013,-0.0826858515,0.484226995,0.42814332200000005,-36.123816789473686,37.625604157894735,-138.30012105263157,10.917863497613432,0.6554465775107815,147.8093376362989,15.667632352940798,27.947161764705978
51000,51000.0,0.9434799159999999,-11.702470300000002,-1.84205777,-0.949490348,-0.438932801,-0.554573066,-36.2188712,38.320617799999994,-137.446596,11.889236484875875,1.1863432432350358,147.21364517139884,15.618823529411387,27.934117647058923
51100,51100.0,-1.6497079789473683,-10.213888631578948,0.3570500381578947,-1.653590952631579,0.2255136589473684,-0.5394560305263157,-37.857667,39.70886340000001,-132.26226400000002,10.374612124413863,1.7552384482455632,143.19031426526678,15.570014705881976,27.92107352941186
51200,51200.0,0.084440615,-9.778912,-0.47581023299999997,-0.956092875,-0.2191688505,-0.450120543,-39.1226196,40.321044799999996,-127.421572,9.79965727709376,1.0814951467815344,139.2574802196477,15.521205882352564,27.908029411764804
51300,51300.0,1.243476135,-8.157381299999999,-0.41206054649999996,0.1606765765,-0.09367904775000001,-0.533585355,-40.5639648,40.4394532,-126.615598,8.263371066822943,0.5686032532458825,138.96912479180833,15.472397058823152,27.894985294117745
51400,51400.0,2.708605925,-8.961592125000003,-3.439826225,-0.049498748800000006,-1.154100021,-0.48570480200000005,-42.3919666,39.5959472,-126.0620108,9.975063372491276,1.2555308613795693,138.76816367478457,15.42358823529374,27.881941176470686
51500,51500.0,1.1650588990000001,-7.59516357,-1.10410312,0.049146270875,-0.15200424149999994,0.03213272096000001,-43.3428956,39.371032799999995,-125.390318,7.765920735841425,0.16573432014552936,138.38865589083082,15.374779411764331,27.868897058823624
51600,51600.0,4.48929756,-9.826498599999999,-4.3911622,0.454534912,-0.5284118640000001,-0.08350524839999998,-42.81707760000001,39.5199584,-125.47424199999999,11.661752692629467,0.7083210474991777,138.34348960565882,15.32597058823492,27.85585294117657
51700,51700.0,-1.4502441420000003,-9.686914,-1.537756348,0.36185608,0.43714294,0.1384887682,-43.1603994,39.756166,-127.12768600000001,10.011188185016971,0.5996912127496198,140.01725282353152,15.277161764705511,27.842808823529506
51800,51800.0,3.95250856,-9.75060428,-0.2635590000000003,0.239559938,0.8404480200000001,0.299349968,-41.4718628,40.33935579999999,-128.435668,10.830547087042351,0.9388169790693992,140.86491702464858,15.228352941176098,27.82976470588245
51900,51900.0,2.47625122,-10.340048,-0.381835924,0.6053649879999999,-0.238442992,0.547549442,-39.8120114,40.7965088,-131.23871200000002,10.7021867205231,0.8541101346806582,143.08386746912976,15.179544117646687,27.81672058823539
52000,52000.0,0.3578552238,-9.5073484,0.409213258,0.50822142,0.1075500496,0.01215209964,-39.10538510526316,40.798066842105264,-133.37257894736842,9.53185842728934,0.5197842860348161,144.8517047815391,15.130735294117274,27.803676470588325
52100,52100.0,1.66342166,-9.220040800000001,0.215762328,0.338204956,0.019137573,-0.0668914804,-38.81111175,40.5265805,-134.875485,9.388591142925282,0.3456727792363257,146.08264691830385,15.081926470587867,27.79063235294127
52200,52200.0,1.41465758,-9.501126199999998,0.149206543,0.353115842,0.1043518056,0.156176756,-38.521576,40.221405,-135.79406749999998,9.607292218032416,0.4045894315704139,146.7709779423201,15.033117647058456,27.777588235294214
52300,52300.0,1.68425294,-9.2765506,0.219348146,0.335009768,0.270745848,0.256524662,-37.2821805,39.9364485,-137.18108999999998,9.430875682937009,0.5026231354487578,147.660238920453,14.984308823529046,27.764544117647148
52400,52400.0,1.9203186,-9.5336826,1.04511108,0.101718139,0.454824836,0.235647584,-35.9260555,40.1958465,-138.8626125,9.781609120043004,0.522950803962919,148.96109332486634,14.935499999999633,27.75150000000009
52500,52500.0,1.80018691,-9.36800505,0.9944168075,0.0832824705,0.6773612965000001,0.222061161,-34.079361250000005,40.73295625,-139.767075,9.592220415765846,0.7182436109851166,149.51737959086745,14.88669117647022,27.738455882353033
52600,52600.0,3.58961556,-12.172937300000001,1.109038565,-0.122682191,0.07282257250000003,0.1882431035,-32.030105500000005,41.38183625,-139.36576499999998,12.74424263560167,0.2802787872487196,148.86640516170706,14.83788235294081,27.725411764705967
52700,52700.0,-1.245174385,-10.13791945,-0.728865805,-1.25947875,-0.35999374100000003,-0.5705421454999999,-33.611297,43.0603025,-136.684415,10.244526009184222,1.429771019942448,147.19602587751473,14.7890735294114,27.712367647058915
52800,52800.0,-0.3308937085,-10.786576400000001,0.23245697250000005,-1.33612365,0.0697341913,-0.504817198,-35.6422425,45.03669725,-131.08597,10.8018552698035,1.4300659753272849,143.11680311203492,14.74026470588199,27.699323529411856
52900,52900.0,0.4736236555,-9.214115199999998,0.006754303499999975,-0.72807314,-0.1955139165,-0.498641968,-37.765885,45.6905365,-125.93383875,9.235642789626759,0.9090070838705671,139.18771347303183,14.691455882352574,27.686279411764804
53000,53000.0,0.688555162,-8.6217972,-0.919573972,-0.008914947550000003,-0.4601272525,-0.717129515,-40.71235675,45.65544125,-124.647903,8.698556403093374,0.8584632599622581,138.84927927375358,14.642647058823163,27.67323529411773
53100,53100.0,2.087796035,-8.678111999999999,-2.08177493,0.061072539749999995,-0.557066345,-0.443246465,-43.07022,44.8837275,-123.72207875,9.168393255750633,0.7154944977901759,138.4802345537519,14.593838235293756,27.66019117647068
53200,53200.0,2.60170745,-8.487419000000001,-2.489563,0.19343567,-0.16568756,0.0615844715,-43.997575,44.7940835,-123.77205,9.224859432736654,0.262844143895887,138.7869730122311,14.545029411764345,27.64714705882362
53300,53300.0,3.13321685,-8.814232,-3.0288543999999997,0.24989319,-0.32547760000000003,-0.008728027250000001,-43.8282,45.02945025,-123.70224250000001,9.833871517652645,0.4137555410543176,138.74729179211744,14.496220588234932,27.634102941176558
53400,53400.0,-0.15341949500000002,-9.621666,-1.096740715,0.69996643,0.4585495,0.467979425,-43.696213,45.18241925,-126.182555,9.691575702247404,0.9617412035126591,140.97139437631012,14.44741176470552,27.621058823529506
53500,53500.0,1.238807624,-7.697929500000001,0.910202015,0.168403625,1.35337065,-0.0092544555,-42.1707145,45.70045475000001,-127.6756275,8.054271360102375,1.3640336733701033,142.01397198652853,14.39860294117611,27.608014705882443
53600,53600.0,3.23736585,-10.6607515,0.5618438699999999,0.444831845,0.45748902,0.5691833500000001,-40.72227475,45.96366999999999,-130.31578249999998,11.185429733601673,0.8564647356320969,144.05982408162305,14.349794117646699,27.594970588235388
53700,53700.0,1.59255215,-9.938903999999999,0.898223875,0.646698,-0.498054505,0.25546265,-39.58244325,45.96252475,-131.6272725,10.109243250548817,0.8586170094023621,144.93140659848336,14.300985294117286,27.581926470588325
53800,53800.0,1.00154038,-9.032457899999999,0.096707155,0.208083341,0.30419617,-0.1606864955,-40.01900785714285,45.53920285714285,-134.0024657142857,9.099163109600617,0.4138631499024838,147.0783930634183,14.252176470587877,27.568882352941266
53900,53900.0,2.02811363,-9.675540949999998,0.49761810149999997,0.32408448300000003,0.17188873,0.17977523750000002,-39.589232,45.4713448,-134.955902,9.902474910926061,0.4085998746859841,147.81102671960144,14.203367647058466,27.555838235294214
54000,54000.0,2.188947295,-9.68355995,0.634688566,0.26172028,0.1078689565,0.2759101845,-38.599757473684214,45.35683184210527,-136.03499684210527,9.950280755670846,0.3958163553957728,148.50173634840525,14.154558823529054,27.542794117647148
54100,54100.0,1.76655116,-9.7274359,0.6786773635000001,0.14901351599999998,0.280864715,0.1745513925,-37.54775890000001,45.3250123,-136.75307999999998,9.912739367646935,0.3630029736275115,148.88127427767805,14.105749999999645,27.529750000000092
54200,54200.0,1.815871445,-9.505253100000001,0.699265295,0.0720443727,0.37562179799999995,0.28507309,-36.097107,45.6494143,-137.298891,9.703021656846488,0.4771075588045127,149.12398624785948,14.056941176470232,27.51670588235303
54300,54300.0,3.201931735,-10.834691099999999,1.03499832,0.04589615,0.2067283643,0.45706253399999996,-34.3437197,45.7655338,-137.944187,11.346955744159525,0.511055980816657,149.34054598126926,14.00813235294082,27.503661764705967
54400,54400.0,1.81825943,-11.33999255,-1.90526582,-1.144161955,-0.4042037975,-0.5835990879999999,-34.4969178,46.057892100000004,-135.395047,11.652560797225686,1.3523066626335243,147.1167738949773,13.959323529411412,27.49061764705891
54500,54500.0,-1.135644536,-11.1059506,0.6744873,-1.67706604,0.02914733999999997,-0.6517212,-37.6245115,47.0860292,-127.9556305,11.186412934835513,1.809764321972988,141.4410590003263,13.910514705882001,27.47757352941185
54600,54600.0,0.709085084,-9.473348800000002,-0.38997496159999995,-0.8913177640000001,-0.29810486,-0.577786264,-39.3959048,46.7492684,-122.153471,9.51658378151856,1.1075484661917776,136.598495353328,13.861705882352588,27.464529411764797
54700,54700.0,0.6243377800000001,-7.6726716,-0.74814758,0.07337646400000003,-0.49986572,-0.470837396,-41.283263899999994,46.2001039,-119.78713799999998,7.734668356675717,0.6954694976288388,134.86187381980258,13.812897058823175,27.45148529411773
54800,54800.0,2.4870239400000003,-8.3471224,-2.39176328,0.25063782,-0.48750610200000005,-0.222415162,-42.6179502,45.6594845,-119.989775,9.038795012884536,0.5922766602897812,135.27241965627906,13.764088235293766,27.438441176470675
54900,54900.0,2.7209350600000004,-9.510705999999999,-3.35805968,0.262570188,-0.272109984,0.023660278,-42.8976443,45.7035834,-120.90743700000002,10.454543535231346,0.3940234643251022,136.18975886695586,13.715279411764355,27.425397058823613
55000,55000.0,3.26777342,-7.8859954,-2.47676088,0.03971557509360001,-0.60276489,-0.471688844,-43.43078660000001,45.298308899999995,-120.7388328,8.89487375194954,0.7672889749914666,136.0737885447431,13.666470588234944,27.412352941176557
55100,55100.0,0.03798828200000004,-10.118832199999998,-1.09625856,0.9053528000000001,0.0470489508,0.6523803739999999,-42.7848812,45.51788320000001,-121.83135779999999,10.191568957359236,1.1185735305914646,136.91413355647424,13.617661764705534,27.399308823529502
55200,55200.0,1.1383636358000002,-7.4612700200000015,0.7448852600000004,0.09105834880000001,1.5603515799999998,-0.0244903564,-40.7005301,46.2521364,-123.76144599999999,7.958850570146383,1.5633165433482716,138.24913292596742,13.568852941176123,27.38626470588244
55300,55300.0,3.48373108,-10.68721,0.3491241520000001,0.564044196,-0.187957762,0.56267698,-39.1363539,46.558074,-126.49398799999999,11.334693435016339,0.8200841409017601,140.357192789811,13.52004411764671,27.373220588235377
55400,55400.0,0.19601135719999999,-9.8478054,0.6237335239999999,0.65693054,-0.26337891199999997,0.020675659199999998,-38.344574,46.4373779,-128.19030899999998,9.87458031212888,0.7096999528179798,141.63174564907283,13.471235294117301,27.36017647058832
55500,55500.0,0.7684304357142857,-8.9778835,0.4304177392857143,0.18697029857142855,0.5000239742857143,-0.03962053714285715,-38.3985902,46.636963,-130.457913,9.030904268101336,0.5379749527249933,143.76627821272174,13.422426470587888,27.347132352941266
55600,55600.0,1.94120637,-9.8915036,0.3260108945,0.3436935445,0.3100059525,0.258596806,-37.25196855,46.51245115,-131.57371,10.090972650534024,0.5304139939135702,144.43970071168218,13.373617647058476,27.334088235294203
55700,55700.0,2.1605171050000003,-9.43133015,0.065406036,0.24669647100000003,0.216736602,0.366942605,-35.73074305,46.481017,-132.94273049999998,9.677127489976098,0.4938491303440041,145.29621075613753,13.324808823529064,27.321044117647144
55800,55800.0,1.706159225,-9.7564075,1.10047457,0.18470229800000001,0.20997848600000002,0.2142898545,-34.02388736842105,46.58596678947368,-133.7329242105263,9.967325135295283,0.3556145758846579,145.64500967532982,13.275999999999653,27.308000000000085
55900,55900.0,2.13274158,-9.68828805,1.23156126,0.0418983456,0.525991055,0.2004348745,-32.25654685,46.9370271,-134.6923075,9.996560017417686,0.5646795375206115,146.2382785598582,13.227191176470244,27.294955882353026
56000,56000.0,2.4285227380952383,-12.762440571428574,0.4467148317142857,-0.14894975619047618,-0.09190949928571428,-0.01805913985714285,-31.0974885,47.4971014,-134.532543,13.01468429364521,0.1933410326249244,146.02068834807082,13.178382352940831,27.281911764705967
56100,56100.0,0.16822524523809526,-9.57517719047619,-1.1663418904761904,-1.4809330523809523,-0.3449329180952381,-0.4691234752380952,-32.201080499999996,48.980484999999994,-131.271434,9.667766632820614,1.5969543484620357,143.76548597359638,13.12957352941142,27.26886764705891
56200,56200.0,0.64282683,-11.26379415,0.706516248,-1.57128219,-0.17661590719999998,-0.323827364,-34.14238095,50.3365321,-123.58116025,11.315974269815085,1.6192368265011865,137.73845647636915,13.080764705882013,27.25582352941185
56300,56300.0,1.347651857142857,-8.610885571428572,-0.6628766585714285,-0.3589019771428571,0.04226030628571428,-0.7311335885714286,-36.47018415,50.5529784,-118.9307405,8.74263039614404,0.8228458856155041,134.2767669716296,13.0319558823526,27.24277941176479
56400,56400.0,0.7761260999999999,-8.3547758,-1.23680418,0.36803589,-0.55888062,-0.55030518,-39.6783447,50.7649225,-119.57275349999999,8.484505732273961,0.8750473762024711,135.82749549386403,12.983147058823187,27.22973529411773
56500,56500.0,1.09071962,-7.9235777999999994,-2.69295044,0.150506592,0.012954713999999992,-0.117593382,-41.0562136,51.0269164,-119.298247,8.442538890059973,0.2245660172323594,136.09361693463984,12.934338235293778,27.216691176470672
56600,56600.0,4.33056338,-9.492981,-2.87994082,0.20419006,-0.26443786,-0.0215087902,-40.8331291,51.262969899999995,-119.3254088,10.826764523507675,0.3381905709136592,136.13893808618386,12.885529411764367,27.20364705882361
56700,56700.0,1.62439882,-7.2421935999999985,-2.64530944,0.309228516,0.1514434824,-0.281222536,-42.0507812,51.63253810000001,-119.9993908,7.935659451070608,0.4913926943315009,137.2374999163183,12.836720588234956,27.190602941176554
56800,56800.0,3.53088978,-14.9907902,-6.33358156,0.221875,-0.484313956,0.639382942,-39.925690100000004,53.1932068,-122.44323600000001,16.69739067819622,0.8447129083728359,139.34128080269872,12.787911764705546,27.177558823529488
56900,56900.0,-2.92315674,-7.5816864,0.8971496399999999,0.4421722400000001,0.3035553004,0.46382142,-39.57122879999999,53.6375421,-124.88754250000001,8.402362263160994,0.7544472601491199,141.56280943249382,12.739102941176133,27.16451470588244
57000,57000.0,1.6270202792,-9.698172,0.028057863999999988,0.59429322,0.1335388166,-0.0161865238,-37.8636179,54.03488205,-127.21321200000001,9.914493723750127,0.6232372470404173,143.30635711831474,12.690294117646722,27.151470588235373
57100,57100.0,2.2375488,-9.4376742,0.062048348000000024,0.411071776,0.31613159999999996,0.0379333496,-37.92144845,54.2104341,-130.2295695,9.7041861538266,0.5254587210312098,146.0704166432366,12.641485294117313,27.13842647058832
57200,57200.0,1.83819886,-9.474304199999999,0.668032838,0.35098268,0.28417053000000003,0.19516296600000002,-37.39776555,54.11453205,-131.8776745,9.674273162921915,0.4920697262656097,147.37266807989127,12.5926764705879,27.125382352941262
57300,57300.0,2.0852783,-9.522195800000002,0.29501342199999997,0.239352416,0.290130614,0.44614258,-35.74890125,54.2124166,-133.8040135,9.758464739062461,0.5844790859034869,148.72967845028558,12.54386764705849,27.1123382352942
57400,57400.0,1.6870598999999997,-9.40786310526316,0.8543428010526316,0.1594270442105263,0.3839609242105264,0.26375459526315786,-33.93730195,54.52476529999999,-135.03753500000002,9.596233487953814,0.4925372750708933,149.5321065637319,12.49505882352908,27.099294117647144
57500,57500.0,1.679396025,-10.1559369,1.34438782,0.158386993,0.315813445,0.286297609,-32.670058999999995,54.9979402,-135.7804875,10.394453505045783,0.456596215829305,150.09516762195398,12.446249999999669,27.086250000000078
57600,57600.0,2.81658165,-13.10284425,-0.43653871,-0.23586273,-0.125213625,-0.06678009100000001,-32.047653600000004,55.806349899999994,-136.3359855,13.434194121784587,0.28975151379902603,150.76154471474868,12.397441176470256,27.073205882353026
57700,57700.0,-0.7142639000000001,-9.239197,-0.84355165,-2.2199249,-0.15184021,-0.6691894549999999,-35.8538819,56.7571251,-129.8316165,9.320123846475683,2.324018509663808,146.1631767931254,12.348632352940845,27.060161764705963
57800,57800.0,1.2717285,-11.2907895,0.4438095,-1.30891187,-0.11930542149999998,-0.7305503799999999,-39.9081419,56.825408700000004,-121.48910500000001,11.375530114650864,1.5125267811984946,139.93412460118878,12.299823529411436,27.047117647058908
57900,57900.0,0.1166473365,-7.223759475,-0.5394889685,-0.07932815474999999,-0.25890120850000004,-0.849703232,-44.96467555,55.0455476,-117.97126899999999,7.245590816944755,0.9009736766519107,137.7291186935681,12.251014705882024,27.034073529411845
58000,58000.0,0.14922453389473686,-8.160984210526316,-1.3798185578947368,0.3909807694736842,-0.6258529031578948,-0.24314157894736846,-47.993309,54.28049215789474,-118.98233263157894,8.287084861440654,0.7914462902376365,139.30747284077552,12.202205882352615,27.021029411764783
58100,58100.0,3.10711978,-8.5051328,-3.41935424,0.205679322,0.2076873796,0.02940979,-48.9093016,54.266052,-119.437558,9.683440831040684,0.3140550879426816,140.00810437845897,12.153397058823199,27.00798529411773
58200,58200.0,4.991839799999998,-10.541168,-3.56372986,0.26300048800000003,-0.535440072,0.06392822079999999,-49.501647600000005,54.273681599999996,-120.44036799999999,12.203620372442286,0.6050081495897216,141.07440841378653,12.10458823529379,26.99494117647067
58300,58300.0,-1.57833558,-6.92783508,0.998663356,0.78284607,0.27883911,0.37008056799999994,-51.271972600000005,54.104614,-122.680055,7.210576803722043,0.9573076586881448,143.5500977068726,12.055779411764377,26.98189705882361
58400,58400.0,4.415564263157894,-10.283514368421052,-2.503144930526316,0.23293023684210526,0.5800211257894738,-0.12086085057894735,-49.746399,54.9200436,-124.882204,11.684528608511727,0.9354462782522251,145.2126823765272,12.006970588234966,26.968852941176554
58500,58500.0,-0.060585774999999835,-9.763232,-0.24710006650000005,0.567709347,-0.2947464005,0.661167136,-49.884948,55.08728000000001,-128.453372,9.942190811975372,0.93255290804382,148.4029926284343,11.958161764705556,26.955808823529487
58600,58600.0,-0.4261764400000001,-9.4228324,1.21701815,0.57331084,0.181795505,0.1346618655,-49.4128424,55.134887600000006,-131.148376,9.523789759989825,0.6182102210618757,150.6040871724517,11.909352941176145,26.94276470588243
58700,58700.0,1.8483032,-9.74191775,-0.79925995,0.4053680435,0.47666855700000005,-0.09975967454999997,-49.349670399999994,54.52270479999999,-134.358214,9.95657028916775,0.6457407048124266,153.1674117050299,11.860544117646734,26.92972058823537
58800,58800.0,2.21953507,-9.50321235,0.96442414,0.1460868825,0.489130401,0.1711463925,-49.283448,54.23065160000001,-136.649474,9.806624845373122,0.5402297260757832,155.05776867047916,11.811735294117325,26.916676470588317
58900,58900.0,1.730217715,-9.37237075,0.21462631225,0.30155868550000003,0.214720921,0.27761382900000003,-48.6877436,54.3853752,-138.202824,9.534844084224742,0.4628951859479439,156.2959183852329,11.762926470587912,26.90363235294125
59000,59000.0,1.98579714,-9.7954866,1.1481827,0.090847779,0.272662362,0.22307128899999998,-47.777404,54.5547488,-139.350282,10.060790746378844,0.3657580952563389,157.0905437150164,11.7141176470585,26.8905882352942
59100,59100.0,2.184877,-9.6083815,0.84040526,0.050364684900000005,0.431495665,0.195480347,-47.083129799999995,55.1229868,-140.27740400000002,9.889855853077355,0.4764084045970907,157.90224649709162,11.665308823529092,26.877544117647137
59200,59200.0,3.07910311,-11.527575599999999,0.81981506,-0.132754516,-0.016130067000000026,0.0366561891,-46.5579222,55.913696400000006,-139.8645,11.961881034597079,0.1763699229938987,157.65838791361008,11.61649999999968,26.864500000000078
59300,59300.0,0.13172454700000014,-10.3329833,-1.0887222,-1.145173615,-0.424128719,-0.61454163,-50.25886465,56.63734445,-134.68979,10.406343150757243,1.3691580815097415,154.51747637643317,11.567691176470268,26.85145588235302
59400,59400.0,-0.6574051099999999,-10.5946795,0.214205936,-1.41181182,0.05088043,-0.496508778,-54.29763805,56.65840079999999,-126.3628407,10.625450825177252,1.4974894720510548,148.74904280202568,11.518882352940855,26.838411764705963
59500,59500.0,0.588183585,-9.5690018,-0.440487667,-0.6527084329999999,0.0212615965,-0.610279845,-57.75779789999999,55.86441015,-121.0176083,9.598844087514248,0.8960990328227336,145.26642745395677,11.470073529411446,26.825367647058897
59600,59600.0,0.3709068225,-8.08130625,-1.375659925,0.161743161,-0.5326766975,-0.59595491,-61.3102718,54.0747063,-118.33389275,8.217405078269492,0.8171158839665735,143.82682910686063,11.421264705882034,26.81232352941184
59700,59700.0,2.685195925,-8.5745085,-2.38780975,-0.15996169999999998,-0.265556335,-0.09794235,-62.33459485,53.06465125,-116.5499872,9.301245798572443,0.32590417094069896,142.42670489932374,11.372455882352623,26.799279411764783
59800,59800.0,2.434108725,-8.549663625,-2.4776001,0.3423042325,-0.2847404475,0.2045974725,-62.2542569,53.56720035,-115.71006725,9.234605020930317,0.4902702068269818,141.89400192476813,11.323647058823214,26.786235294117727
59900,59900.0,3.94514845,-9.84703075,-3.8446808,0.2815818775,-0.15636444,-0.13948822249999998,-62.13325495,54.05242920000001,-116.330797,11.284935058341405,0.35374092140128754,142.53097806086663,11.274838235293801,26.773191176470664
60000,60000.0,-0.14414977500000006,-8.982124375,-0.768432615,0.571075445,0.2729301475,0.29593658,-62.813567799999994,54.38964805,-117.824784,9.026053328537412,0.7047759637159909,144.17525141158026,11.22602941176439,26.760147058823605
60100,60100.0,2.2701111000000003,-8.46647275,-0.3892478975000002,0.27492142,0.7890548675,-0.07956695425,-62.49748255,55.384063100000006,-119.52369499999999,8.833964332434123,0.8419757683021296,145.80553950861818,11.17722058823498,26.747102941176546
60200,60200.0,2.274295775,-10.463833,-0.3120384225,0.506092065,0.460422515,0.5446853650000001,-61.534118299999996,56.856384,-122.8001393,10.730510931583076,0.8761308449927818,148.657896664921,11.128411764705568,26.734058823529487
60300,60300.0,1.03900448,-9.6823578,1.428183,0.45793457200000004,-0.529055788,0.317453002,-60.916976899999995,57.76847855,-125.526426,9.843637302529013,0.7704993308861352,151.01319042415568,11.079602941176157,26.72101470588243
60400,60400.0,1.55663452,-9.7434206,-0.143603512,0.5657470920000001,-0.161965946,-0.04132690432000001,-60.6751251,57.95486485,-128.32123199999998,9.868459448486046,0.591343584634435,153.31883251984073,11.030794117646746,26.70797058823537
60500,60500.0,1.57291566,-9.733120800000002,0.9232482879999999,0.213351438,0.238146976,0.20219421199999998,-60.79002320000001,58.07922475,-129.5086665,9.90351107225316,0.3784696920259546,154.40580970151203,10.981985294117337,26.694926470588307
60600,60600.0,1.28441466,-9.701279,0.205941768,0.276626586,0.31975403,0.323422244,-59.403763,58.54431125,-131.618426,9.788324698080453,0.5331710845490747,155.81971976267994,10.933176470587924,26.68188235294125
60700,60700.0,2.31032714,-9.669919199999999,1.1267578,0.148803712,0.34701843,0.35921020000000004,-57.32582135,59.39353955,-133.6299875,10.006151078372536,0.5212457442507046,157.06982067688523,10.884367647058511,26.66883823529419
60800,60800.0,2.22820436,-9.931604,1.00345458,0.0446197508,0.482736204,0.227127074,-55.67192085,59.6524817,-134.51522749999998,10.228096562580324,0.5359794430652226,157.32851870852699,10.8355588235291,26.65579411764713
60900,60900.0,2.3780265750000003,-11.38871495,-0.31162414675000005,-0.37275543,0.006291961900000004,-0.051335143900000005,-55.09330799999999,59.91211,-133.04786850000002,11.640687232235123,0.3825508308445133,155.96957633547925,10.78674999999969,26.642750000000078
61000,61000.0,-0.17748718556499998,-10.1210965,-1.677160615,-1.3184936349999998,-0.14885711599999998,-0.6574707,-57.2638704,58.289033,-125.03440800000001,10.26095201324184,1.4889303781957448,149.36798703726413,10.73794117647028,26.62970588235301
61100,61100.0,0.34948349300000003,-10.95027695,-0.579534145,-1.296664415,-0.14352951349999996,-0.38268662,-59.24232842105264,55.76332489473684,-116.81277421052631,10.973172487362435,1.3632658894761875,142.35329716718482,10.689132352940867,26.616661764705963
61200,61200.0,0.797428134,-8.618619,-0.546616364,-0.49493485,0.013539123270000002,-0.5802353025,-60.4537965,52.603913,-111.253355,8.673770335486756,0.7646504941769159,137.11119903193352,10.640323529411457,26.603617647058893
61300,61300.0,1.000643925,-8.5453632,-2.5678542550000003,-0.007210541050000005,-0.5485443139999999,-0.57693634,-62.083435,49.7154235,-108.98513799999999,8.984425776400208,0.7990270093643818,134.92141173379622,10.591514705882048,26.59057352941184
61400,61400.0,1.81334844,-8.21411865,-1.98086163,-0.1356765725,-0.12398681849999997,-0.261299143,-62.249756000000005,47.52655,-106.378173,8.642393751748228,0.31965140578621754,132.0991239033409,10.542705882352637,26.57752941176478
61500,61500.0,1.8361928421052631,-7.823844521052631,-2.294918678947368,0.31877135947368423,-0.3855606905263158,0.003948814026315785,-61.508942000000005,46.668243,-105.90286499999999,8.35899542994556,0.5007234213596449,131.06020904785652,10.493897058823224,26.564485294117716
61600,61600.0,2.30554659,-9.2093936,-2.72743384,0.459849546,-0.08963775530000001,0.027064514339999998,-60.4393005,46.523284999999994,-106.808473,9.878670902252313,0.46951956525322,131.24559150481963,10.445088235293813,26.55144117647066
61700,61700.0,2.26663362,-8.9666187,-1.4082259899999998,0.467095946,0.2399597171,0.35346527,-59.18048666666667,47.269549047619044,-107.50557928571428,9.365811378672968,0.6376366717957411,131.50747865647622,10.396279411764402,26.5383970588236
61800,61800.0,3.6909438999999997,-10.511716,-2.81721958,0.21825103699999998,0.3762130750000001,-0.025125121399999974,-57.3425285,48.269653000000005,-109.73281999999999,11.503119159089112,0.4840007359736509,132.88938176650063,10.347470588234989,26.525352941176546
61900,61900.0,-0.32939758100000005,-8.6850644,0.2825622600000001,0.43961181,0.476132203,0.495787054,-56.62918000000001,48.562622499999996,-112.79144,8.710619492415919,0.8164271827665939,135.2304267486295,10.29866176470558,26.512308823529487
62000,62000.0,2.24329525,-9.8969986,1.234497094,0.6138961549999999,-0.209048457,0.288801578,-54.400634,49.787902,-114.481355,10.224648202879743,0.7112807799535807,136.17769156736298,10.249852941176167,26.499264705882425
62100,62100.0,0.7350692759999998,-8.90687685,0.0067504885000000394,0.262882995,0.23293152100000006,-0.229241947,-54.019165,49.6513375,-116.164397,8.944089441944984,0.4257776037988813,137.39568214103062,10.201044117646758,26.48622058823537
62200,62200.0,1.92911453,-9.39996445,0.7045928699999999,0.3195106525,0.2451263405,0.196607974,-53.5812385,49.5559685,-116.653442,9.622726613213016,0.4482865265516138,137.6043058935988,10.152235294117348,26.473176470588307
62300,62300.0,1.9022362,-9.52441045,0.21851425149999998,0.2662406895,0.0766014102,0.40108718549999994,-51.4984125,50.2632135,-118.8858,9.715670409435297,0.4875208777581148,138.9687906458858,10.103426470587936,26.46013235294125
62400,62400.0,2.07294235,-9.30102945,1.4804999900000002,0.1881088315,0.249553685,0.2643501275,-49.555205,50.495147499999995,-120.30487,9.643704651553676,0.4093326563673445,139.56648264585402,10.054617647058524,26.44708823529419
62500,62500.0,2.71380689,-9.75491185,1.09508514,0.04222106945,0.4434761135,0.2728263725,-47.56012,50.9124755,-121.092225,10.18558787054638,0.522531373826466,139.7047987315857,10.005808823529113,26.43404411764713
62600,62600.0,2.010103585,-12.80554295,-0.19106979425,-0.261379239,-0.0090927127,-0.14880676159999998,-46.0441585,50.76065,-120.895385,12.965255455596598,0.30143721428038595,138.96929335033778,9.956999999999702,26.42100000000007
62700,62700.0,0.8873977799999999,-9.256672675,-1.052210195,-1.527816785,-0.434185791,-0.75818937,-46.491242,48.941802,-115.73638999999999,9.358464493583243,1.7600249897811007,133.98431044255267,9.908191176470293,26.40795588235301
62800,62800.0,0.18954468,-11.759094000000001,-1.1757507,-1.4689178,-0.08312988,-0.4295044,-47.9461665,45.84198,-108.84399499999999,11.819247378539071,1.5326787366323755,127.46545679176378,9.859382352940882,26.39491176470595
62900,62900.0,1.2872925,-8.772324000000001,0.39245605,-0.43667603,0.058547974,-0.772522,-49.87648065,42.936402,-105.618668,8.874954202288249,0.8893278703155916,124.44493419681228,9.810573529411467,26.381867647058893
63000,63000.0,0.35833740000000003,-6.951538,-1.7671203999999998,0.15242004,-0.52415466,-0.20899963,-50.07789665,41.47628795,-103.8806918,7.181573697023441,0.5845090431579772,122.5531737541523,9.761764705882056,26.368823529411834
63100,63100.0,3.0302734,-8.359328999999999,-3.0240784,0.15774536,-0.31430054,-0.060928345,-49.19662425,41.6073603,-103.50334025,9.39180431963609,0.35690431668762457,121.91974240138693,9.712955882352649,26.355779411764768
63200,63200.0,3.8275300000000003,-9.317017,-3.1916656000000003,0.17799377,-0.5390625,-0.1003418,-48.71139470000001,41.79504475,-103.8405597,10.56614977091525,0.5764881940615114,122.0757529174835,9.664147058823236,26.342735294117716
63300,63300.0,1.85112,-7.6698,-2.631424,0.46134949999999997,-0.18539429,-0.05239868,-48.471756,41.760713,-103.8233175,8.317263345727127,0.4999600239825146,121.95401253606676,9.615338235293825,26.329691176470657
63400,63400.0,2.869438185,-14.0195744,-3.89830934,0.7500389095000001,-0.125843809,0.592936681,-46.3352967,43.87329035000001,-106.966323,14.833592908848884,0.967125002779656,124.554487409088,9.566529411764414,26.316647058823598
63500,63500.0,-1.896103712,-7.095545970000001,2.202832765,0.3908821115,0.9346267675,0.273188786,-46.014174700000005,44.429626899999995,-109.0464007,7.673266626787723,1.053057260704855,126.4218900565513,9.517720588235004,26.30360294117654
63600,63600.0,3.40987095,-11.264211300000001,1.467276005,0.33649826000000005,0.3058547973,0.2042785675,-44.64515705,45.7302845,-111.65283225,11.864031035982613,0.5028144867711681,128.64996966334098,9.468911764705592,26.290558823529484
63700,63700.0,1.516708335,-10.0733342,1.275441715,0.555510685,-0.2971908605,0.1754570015,-43.8688667,46.423951,-113.287124,10.26664679926626,0.6542693891789287,130.05255750696534,9.42010294117618,26.27751470588242
63800,63800.0,0.40915909100000003,-9.1925175,0.3616325335,0.280358128,0.349199673,-0.04090423625,-43.8175965,46.508790000000005,-115.395051,9.208998795990489,0.4503112031214028,131.90587929581426,9.37129411764677,26.26447058823536
63900,63900.0,1.7955817850000002,-9.20520455,1.06605836,0.296707916,0.43347244100000004,0.16491165,-43.4713746,46.98944,-117.45880225,9.439950022246348,0.5509497709021497,133.76975264348562,9.322485294117358,26.251426470588303
64000,64000.0,1.722498275,-9.3879329,0.35678558,0.22342376600000002,0.476024632,0.4376777785,-42.04177865,47.6068875,-118.73558,9.55200902863,0.6843966328290885,134.65553258256256,9.273676470587947,26.238382352941247
64100,64100.0,2.290641025,-9.7109714,1.502581795,0.06703719920000001,0.4394874535,0.1601684605,-40.54718,47.833252,-119.32068000000001,10.090687910574847,0.4725918373493652,134.79435625615156,9.224867647058536,26.225338235294185
64200,64200.0,2.442967265,-10.8259007,1.09473345,-0.03155670185,0.4654769865,0.12985839475000002,-39.53277525,47.622910499999996,-120.478135,11.152171138738773,0.4851536320025807,135.4467300799125,9.176058823529123,26.21229411764713
64300,64300.0,1.5099486999999998,-11.488555999999999,-0.95188904,-1.0033875,-0.5166930999999999,-0.54774475,-39.230117,46.9900513,-117.94548025,11.626390531297314,1.2545049007064193,132.88447085016512,9.127249999999712,26.19925000000007
64400,64400.0,-2.1795197,-10.346511999999999,0.7024994000000001,-1.6862183000000002,0.056411743,-0.6532135,-40.57273775,44.5095064,-112.07481499999999,10.596892096073852,1.809199357888853,127.23218775163599,9.078441176470305,26.18620588235301
64500,64500.0,1.4704437,-10.025696,-0.24679565,-0.9139099,0.055358887,-0.500885,-40.73066705,41.93092345,-106.780244,10.135960391208354,1.043638680249486,121.73429383393879,9.029632352940894,26.17316176470595
64600,64600.0,1.025116,-7.8709106,-0.65141296,-0.007369995,-0.46342468,-0.46040344,-41.3606273,40.5648801,-106.5149695,7.964071529758151,0.653290194648011,121.25047535842316,8.98082352941148,26.160117647058893
64700,64700.0,2.2533417,-8.750778,-2.7762756,-0.09577942,-0.3345337,-0.18556213,-41.08099673684211,40.28111505263158,-106.00401226315789,9.453114334937364,0.3943599850661363,120.61147865778635,8.93201470588207,26.147073529411827
64800,64800.0,2.0067444,-8.195328,-1.7180328,0.17904663,-0.19071960000000002,0.18515015,-40.0753784,40.5941768,-106.44287,8.610578425192537,0.32048750300680895,120.76472486432024,8.883205882352659,26.134029411764768
64900,64900.0,4.488342299999999,-10.588333,-4.0571747,0.3921051,-0.15769958,-0.107803345,-38.7597652,41.2744138,-107.7734376,12.195026808792932,0.4361618142058924,121.74205327223551,8.834397058823248,26.120985294117713
65000,65000.0,0.033920288,-8.832184,-0.49938965,0.5955658,-0.008560181,0.25758362,-38.3627324,41.9604492,-109.268798,8.846356019193504,0.6489385333917976,123.17532878689457,8.785588235293838,26.107941176470646
65100,65100.0,2.6675415,-11.587906,-4.178085299999999,0.27812195,0.36427307,0.067977905,-36.1422734,43.4753422,-112.17681599999999,12.603639946187544,0.4633224408197993,125.61855095678894,8.736779411764426,26.094897058823594
65200,65200.0,-0.036712646,-8.6214905,0.58638,0.6669463999999999,0.13737488,0.5643921,-34.7686766,43.7783814,-114.13849,8.64148643257435,0.8844364311076204,127.09506118604601,8.687970588235013,26.08185294117653
65300,65300.0,0.07342529,-9.339752,-0.019348145,0.42300415,-0.24717712,0.31085205,-33.244018,44.6307374,-116.277162,9.340060655340016,0.5802224026680798,128.90900204727814,8.639161764705603,26.068808823529483
65400,65400.0,2.0713958999999997,-9.557632,0.49301147,0.48265076,0.25349426,-0.11631775,-32.5729372,44.7692864,-118.374022,9.791939069025725,0.5574414004598042,130.68168737095732,8.590352941176192,26.055764705882417
65500,65500.0,1.1479821736842104,-9.454552736842103,0.9290008526315788,0.2236882263157895,0.2291573,0.10929549394736844,-32.484435999999995,44.8321532,-119.87732,9.569830232504515,0.3407856538215889,132.04481652521338,8.541544117646781,26.04272058823536
65600,65600.0,1.60960385,-9.774600999999999,0.1970253025,0.290637975,0.1885032625,0.2820930475,-31.148986800000003,45.2664182,-121.427308,9.90902361275027,0.4470940794817373,133.28141158492895,8.49273529411737,26.029676470588303
65700,65700.0,2.66245881,-9.57839265,1.072888925,0.0613418576,0.047092437550000005,0.2965728755,-29.868164,45.3408816,-122.871096,10.00441259087891,0.3067065100198183,134.33279164147194,8.443926470587959,26.016632352941237
65800,65800.0,1.4079397157894735,-9.438925789473684,0.08605876709473684,0.0958549102105263,0.38479373,0.08367277421052632,-28.856201,45.0927736,-123.75641,9.545510031619262,0.4088791381137569,134.83966252825564,8.395117647058548,26.00358823529418
65900,65900.0,3.2946375947368423,-10.366234736842106,0.8269998657894737,-0.028337980684210524,0.2440201642105263,0.21497947157894734,-27.9455564,45.412597600000005,-124.652402,10.91005686964559,0.3317629221841389,135.57844411980795,8.346308823529137,25.990544117647122
66000,66000.0,1.743988,-11.379021,-1.7330017,-0.798858635,-0.757446285,-0.4444198700000001,-28.096923600000004,45.354002799999996,-123.91265959999998,11.651622349316494,1.2007892929259179,134.9106306210447,8.297499999999728,25.977500000000067
66100,66100.0,-1.83421173,-10.495916125,0.6302528464999999,-1.66001815,-0.0560775775,-0.580718985,-30.4663086,44.4757072,-119.164426,10.685086279817282,1.767785848714532,130.79225745895138,8.248691176470315,25.964455882353004
66200,66200.0,0.7184265000000001,-9.9098146,-0.94016116,-0.8876983559999999,-0.07226562480000001,-0.55690918,-32.153930800000005,43.06732120000001,-115.25451799999999,9.996107897426183,1.0525753825295667,127.17054709762726,8.199882352940904,25.951411764705945
