Unnamed: 0,st,ax,ay,az,gx,gy,gz,mx,my,mz,AccTotal,GyrTotal,MagTotal,lat,lng
15000,15000.0,4.206420925,-10.10769275,1.711357075,-0.021751403875000002,-0.08659744400000001,0.136680605,-44.521789399999996,32.855834,-136.721804,11.084085023131086,0.17623859006865994,147.49425488581988,33.19,32.63
15100,15100.0,3.268787325,-9.61658075,-0.05855178875,-0.398052215,0.06174469,0.09646987875,-44.6990976,33.121337600000004,-136.722716,10.160780273419247,0.414516535825948,147.6081358110649,33.13731746031745,32.615920634920634
15200,15200.0,4.163619975,-8.851032,-0.15791320999999994,-0.77542116,-0.5353317275,-0.2420158375,-45.160826799999995,34.19342,-134.404602,9.785824573545524,0.9756829811914998,145.85385178683106,33.08463492063491,32.601841269841266
15300,15300.0,2.67473225,-10.5706675,-1.11200335,-1.257995625,-0.5915298525,-0.6071357500000001,-47.55828820000001,34.283446999999995,-130.02808000000002,10.960439581234844,1.5211326005395036,142.6343586819805,33.031952380952376,32.5877619047619
15400,15400.0,3.58272545,-9.2409895,-1.2272300625,-0.697399125,-0.37554931,-0.468658445,-49.5095824,33.638000399999996,-127.08374040000001,9.990550867060763,0.9217690481496926,140.4743858911348,32.97926984126982,32.57368253968253
15500,15500.0,3.55795286,-8.5839082,-1.328506448,-0.034851074,-0.43999329,-0.6549194300000001,-51.57534915789474,32.08569978947368,-125.76366315789473,9.389354725126623,0.7906558262449009,139.66441541502493,32.92658730158728,32.55960317460316
15600,15600.0,4.2216156,-7.5450531,-2.22871702,-0.031439209200000005,-0.2638031,-0.59184876,-52.973022,30.5233766,-124.70764299999999,8.931381340025084,0.648970465355755,138.88836834421122,32.87390476190474,32.545523809523786
15700,15700.0,4.10621644,-6.67117316,-1.79895632,0.182034299,-0.27956848,-0.203030396,-54.315667157894744,29.43854042105263,-124.25296378947368,8.037816994792637,0.3981302334898872,138.76485025884418,32.8212222222222,32.531444444444425
15800,15800.0,5.96650986,-7.06861272,-3.27066956,0.459857176,-0.17559814399999998,0.08778991900000001,-54.27825920000001,29.5204929,-124.30183400000001,9.811966247637974,0.5026134846215589,138.81116377049273,32.76853968253965,32.51736507936506
15900,15900.0,5.7177552,-7.5670868,-3.90586248,0.310293578,-0.5593048119999999,-0.0319458006,-54.37103315,29.6813202,-125.06096000000001,10.262945249119406,0.6437669065172097,139.5618841418545,32.71585714285711,32.503285714285695
16000,16000.0,4.69495236,-13.0438202,-2.63692628,0.7481170659999999,0.370458986,0.74036866,-53.83071825,30.45761085,-126.88865600000001,14.129573712251144,1.116270629665009,141.16015285731544,32.663174603174575,32.48920634920632
16100,16100.0,-0.4923278800000001,-7.28002318,0.8909271120000001,0.12941589212000001,0.6265503000000001,0.08097229200000003,-53.3591458,30.4363248,-128.25042549999998,7.374357456803514,0.6588296775845843,142.20349196516275,32.610492063492025,32.47512698412695
16200,16200.0,5.4357178,-9.176232800000001,0.06038208000000001,0.110028078,0.925888072,0.19047241199999998,-51.8520348,31.221237,-130.937043,10.668898821849721,0.9542940470228264,144.24960844022038,32.55780952380948,32.461047619047584
16300,16300.0,5.31169752,-9.8138064,0.6354614239999999,0.496289062,0.17657775879999998,0.23223572,-51.26853965,31.74140935,-132.648847,11.179131357897287,0.5795264513709647,145.71109390998504,32.50512698412694,32.44696825396821
16400,16400.0,3.74277948,-8.491485800000001,0.383599852,0.24744568399999997,0.08901061800000001,-0.173199462,-51.32934525,30.86463955,-134.644396,9.297612130392329,0.31922392429622193,147.3650075303479,32.452444444444396,32.43288888888885
16500,16500.0,4.47588486,-8.427325199999999,1.3633087,0.16627197400000002,0.18701477,0.22095031399999998,-50.74559210526316,31.19386368421053,-135.05233210526316,9.639489327054184,0.3341496013439167,147.60528132717266,32.39976190476185,32.41880952380948
16600,16600.0,4.50031124,-8.3772886,0.88661192,0.18864136199999998,0.305044558,0.338119506,-49.8327627,31.43074055,-136.2976045,9.551664518672263,0.4929792608232388,148.48650267832997,32.34707936507931,32.40473015873011
16700,16700.0,5.04001994,-8.156419425000001,1.3945480200000002,0.137669369,0.182067108,0.423288735,-48.6625675,32.097626,-137.61596500000002,9.691967434209962,0.4820843532395975,149.45407682169662,32.294396825396774,32.390650793650735
16800,16800.0,4.057743824999998,-8.9004772,0.81317441,0.10917663585000001,0.121341707,0.280062107,-47.695159999999994,32.8056335,-138.378905,9.816302594755156,0.3242744990984349,149.99931500078196,32.241714285714224,32.376571428571374
16900,16900.0,5.59877246,-10.57917305,1.89415282,-0.07415695459999999,-0.08414154024999998,0.0580131535,-47.11456250000001,33.370971000000004,-138.56964,12.122995345979971,0.14502948670557342,150.11646645728175,32.18903174603168,32.36249206349201
17000,17000.0,3.4861755800000003,-9.72539715,-1.50142589,-0.6900428809999999,-0.259598542,-0.32446595,-48.37722700000001,33.232116500000004,-137.650295,10.440798182257524,0.8065558433180258,149.6409481476124,32.13634920634914,32.348412698412645
17100,17100.0,1.22563703,-10.16240185,-0.0441917426,-1.62518234,-0.84271696,-0.799895474,-50.743866,33.3686825,-133.0368,10.242924808501533,1.998976772961428,146.24394975921615,32.083666666666595,32.33433333333327
17200,17200.0,5.29488677,-9.5698383,0.378094505,-0.9517814640000001,-0.40484543100000003,-0.619602202,-52.618408499999994,33.1214905,-128.1105,10.961032363877585,1.2133295534891066,142.40133732273358,32.03098412698405,32.3202539682539
17300,17300.0,3.2817192000000004,-6.7934561549999986,-1.5175758295,0.10251540770000002,-0.779762269,-0.6216750900000001,-54.160309999999996,31.324005,-126.428225,7.707447228021357,1.005439484611817,141.06282164218658,31.978301587301512,32.306174603174526
17400,17400.0,3.6876008,-7.19155585,-1.67709966,0.08083038640000001,0.03127441549999998,-0.07774963359999999,-55.12619,30.284881,-125.73700000000001,8.25835152949317,0.12361243365226353,140.5911859399045,31.92561904761897,32.292095238095165
17500,17500.0,5.22778323,-7.13217617,-2.7644211,0.371122741,-0.196798708,0.036546325299999995,-55.226135,30.428314,-125.97656200000002,9.265060036195292,0.4216607707230363,140.87551499055544,31.872936507936434,32.278015873015796
17600,17600.0,6.13207549,-8.5545711,-3.96953897,0.259796148,-0.277548218,-0.211663815,-55.426789,30.291748,-127.005005,11.249784467523314,0.4379865760924523,141.84498605851618,31.82025396825389,32.26393650793643
17700,17700.0,3.30297238,-8.652973699999999,-1.84037323,0.595996094,0.0814483614,0.471607971,-55.3283685,30.197143,-127.00577,9.444870485560028,0.7659061709712305,141.78708814136886,31.767571428571358,32.24985714285706
17800,17800.0,5.20946515,-8.1188341,-1.91843564,0.068580628,0.5405731159999999,0.023123169700000057,-53.933716000000004,31.477355499999998,-129.38843,9.848882933136213,0.5923793426207171,143.6699731291317,31.714888888888808,32.23577777777769
17900,17900.0,4.167395019999999,-10.0577728,0.006980895899999999,0.35588684000000004,0.568708804,0.6501464840000001,-52.34146,32.376861000000005,-131.61087,10.918486820362856,0.9344076901318352,145.29059768392506,31.66220634920628,32.22169841269832
18000,18000.0,3.47421345,-8.9150181,1.837061285,0.6764778119999999,-0.021821593749999982,0.185366057,-50.9391775,32.756805,-133.575445,9.744282394601386,0.7030398642767449,146.66362179122103,31.609523809523736,32.207619047618955
18100,18100.0,3.981057765,-8.8464891,0.6180519210000001,0.3166786175,0.0065132144000000025,-0.203194431,-51.2927255,31.69059765,-135.1274125,9.722052765694071,0.37672060563798976,147.9688035065395,31.5568412698412,32.193539682539594
18200,18200.0,4.07179948,-8.966076650000002,0.859560415,0.1639259395,0.2730430575,0.17796096849999998,-50.92918435,31.436004800000003,-135.802235,9.885953212150472,0.36492778039800106,148.40588482738212,31.504158730158657,32.17946031746022
18300,18300.0,4.2593263850000005,-8.9517711,-0.023723602299999924,0.26651228600000004,0.3457977325,0.37956390799999995,-49.57420335,32.1913148,-137.1366865,9.914438668433547,0.5785786025256513,149.33321128415534,31.45147619047612,32.16538095238085
18400,18400.0,4.97513661,-8.564984875,1.440219855,0.039880371,0.225583653,0.3512870775,-47.92419425,32.81600955,-138.2611075,10.00948646377434,0.4194204810198181,149.96612488444418,31.398793650793575,32.151301587301475
18500,18500.0,4.25878743,-9.11547695,1.1661948800000002,-0.014981842350000003,0.5348259200000001,0.2978607165,-46.61148085,33.61221275,-139.17183300000002,10.128888307297382,0.6124894855789644,150.56984470370443,31.34611111111104,32.137222222222114
18600,18600.0,5.317633795,-10.27510705,1.33456494,0.025338745000000003,-0.1650527977,0.162675472,-44.977264700000006,34.286728000000004,-139.746781,11.64787090317668,0.2392827226731863,150.75721200023796,31.2934285714285,32.123142857142746
18700,18700.0,2.9500580000000003,-10.128647,-1.022522,-1.0918121,-0.1630249,-0.4529419,-45.81306420000001,34.7462466,-137.57896250000002,10.598956717265008,1.1932255212247307,149.1113243483396,31.240746031745964,32.10906349206338
18800,18800.0,2.1288452,-11.544815,-0.2922821,-1.4923401,-0.60617065,-0.7746582,-48.1418606,35.72708135,-132.291259,11.74309005738134,1.7873491986225505,145.24239212775308,31.18806349206342,32.09498412698401
18900,18900.0,3.5342407,-8.931549,-0.34616090000000005,-0.7509155,-0.28553772,-0.6382904,-49.98283325,35.4602816,-128.378217,9.611620687148775,1.0260704227367674,142.25631183075438,31.135380952380878,32.08090476190464
19000,19000.0,3.0709686,-6.950348,-1.4211578,0.10449219,-0.51776123,-0.56585693,-51.6643521,33.99658225,-126.037903,7.730321788631491,0.7740732357413824,140.39438552267606,31.082698412698345,32.06682539682527
19100,19100.0,4.9049225,-7.4088287,-3.1856842,0.07145691,-0.44958496,-0.14508057,-52.65975865,33.47579930000001,-125.7170865,9.439152041315976,0.4777877123121466,140.35129509635118,31.0300158730158,32.052746031745905
19200,19200.0,4.1256104,-7.533325,-2.0340729,0.49436949999999996,-0.115097046,0.112716675,-53.09837330000001,33.60420245,-126.20079055,8.826613126829994,0.5199553647681998,140.97990814242266,30.977333333333263,32.038666666666536
19300,19300.0,6.665266405,-8.02928715,-3.683728005,0.162171174,-0.5328269915,-0.3974433945000001,-53.30261215,33.53324825,-126.10580475,11.067821996177251,0.6845771465380935,140.9550966205704,30.924650793650727,32.02458730158717
19400,19400.0,1.76852648,-10.52459115,-1.7006820850000002,0.500447085,0.24161758600000002,0.607477545,-53.22364725,33.90830885,-126.36444095,10.810704983417738,0.8239692262782587,141.24684616603452,30.87196825396818,32.0105079365078
19500,19500.0,2.0821624285,-5.58258685,0.45614394799999997,0.076995853,1.493669895,0.01705398525,-51.93588245,34.95384235,-127.96546699999999,6.009118826004095,1.4961277883024913,142.45818624799142,30.819285714285645,31.99642857142843
19600,19600.0,6.9792098650000005,-9.4347483,-0.29862976150000003,0.4030250525,0.4345825235,0.5291206345,-49.8428349,35.8586885,-130.81603950000002,11.740101676606686,0.7961914712037601,144.5097162646991,30.766603174603105,31.982349206349074
19700,19700.0,3.31595157,-9.13733045,1.271485895,0.7643035875,-0.3238861065,0.198628996,-49.49066135,36.1124422,-132.004701,9.805896497502504,0.8535912633533334,145.52903633304516,30.71392063492057,31.968269841269702
19800,19800.0,3.76631008,-8.60251555,-0.000378417299999996,0.22731400100000002,0.120222475,-0.372457886,-49.8403927,35.43823315,-133.270496,9.395200129193253,0.4545011319867823,146.6321128467108,30.661238095238023,31.954190476190337
19900,19900.0,4.22377705,-8.40943335,1.1984085249999998,0.1201400758,0.35622863899999996,0.2179107675,-49.87396200000001,35.18737799999999,-134.3164,9.487055499148644,0.4349234914726775,147.5349246723993,30.608555555555487,31.94011111111098
20000,20000.0,4.51419065,-8.861868300000001,0.58853913,0.190020751,0.238896175,0.36507569700000003,-48.557739,35.99945080000001,-135.491638,9.962904669369696,0.4761028810858594,148.36383508006443,30.55587301587295,31.926031746031608
20100,20100.0,4.34839944,-8.7889646,1.025247234,0.15125122100000002,0.204273987,0.252796935,-47.548523200000005,36.525878799999994,-136.10718,9.859726516394245,0.3587817236836504,148.72850232530897,30.503190476190408,31.911952380952247
20200,20200.0,4.1327989,-8.796630699999998,0.64636534,-0.015577698400000001,0.476881412,0.21647492,-46.463623600000005,36.940917799999994,-137.170408,9.74099199861486,0.5242559074659133,149.46324942517245,30.45050793650787,31.89787301587288
20300,20300.0,5.69454042,-9.4246275,1.68208467,-0.085456846,0.34979553,0.319165043,-45.065918,37.9385376,-137.586368,11.140283105662897,0.4826520617964419,149.66734318374813,30.39782539682533,31.883793650793518
20400,20400.0,4.15577847,-10.44467775,-0.555050658,-0.300312807,-0.291177371,-0.28825227000000003,-45.55389320000001,38.3187866,-137.19696000000002,11.258891073557036,0.5114680020254663,149.55473197331673,30.345142857142786,31.869714285714153
20500,20500.0,2.78773655,-9.6171169,-0.011575319600000002,-1.57340852,-0.696830775,-0.8190688840000001,-48.028259999999996,38.4271236,-132.596126,10.020238215742634,1.9060500339563933,146.16955982374114,30.29246031746025,31.855634920634788
20600,20600.0,4.234239105263158,-10.824031842105265,-0.66936932,-1.2812596105263157,-0.5244863421052631,-0.38963798631578944,-50.6445312,37.997741600000005,-126.1279304,11.64653406790349,1.4386416782108458,141.12756191103998,30.23977777777771,31.841555555555423
20700,20700.0,2.930482495,-7.37434848,-0.466107185,-0.246408848,-0.5138679475,-0.6549110225,-52.41241420000001,36.137696000000005,-123.0337524,7.953286163798219,0.8731979381098329,138.52989521261466,30.187095238095175,31.82747619047606
20800,20800.0,2.84818571,-7.18180225,-1.63842622,0.2196372955,-0.189389036,-0.20558777,-53.633118,35.101013,-122.55920400000001,7.9001561233261315,0.3575286692916568,138.30889932035308,30.13441269841263,31.81339682539669
20900,20900.0,4.166852565,-7.08160017,-2.544874555,0.435562891,-0.0228965762,0.09555969550000001,-53.80920379999999,34.78179960000001,-122.83294699999999,8.601751577236685,0.4474196735214765,138.53940184119628,30.081730158730092,31.79931746031733
21000,21000.0,8.71332715,-10.3892511,-4.487232245,0.185823058,-0.348380275,-0.2272079455,-53.9132696,34.9945076,-123.823546,14.285085205739582,0.4656702451006442,139.51184402474718,30.029047619047557,31.785238095237965
21100,21100.0,0.5151550275,-7.019538075,-0.33597564399999996,0.433283993,0.351703641,0.193300625,-54.804686,34.16534420000001,-123.395692,7.050040779513592,0.5996089477897066,139.27439936337223,29.97636507936501,31.7711587301586
21200,21200.0,7.970281174999998,-11.78818545,-5.6331572,0.24110718105,-0.1263870265,0.24220123594999998,-53.0078118,35.1495356,-125.70495600000001,15.312462886921818,0.4670750331586048,140.87958952524514,29.923682539682478,31.757079365079235
21300,21300.0,2.07738038,-8.173294400000001,-0.0365905752,0.4394104,0.40262452,0.521139528,-52.2793584,35.494995,-127.775572,8.465194730605765,0.7922680914678913,142.54746765235768,29.870999999999928,31.74299999999987
21400,21400.0,3.92761536,-9.3201266,1.32954714,0.386572264,0.063442993,0.185797116,-50.8261112,35.9472658,-129.29718200000002,10.20111232023123,0.4426167369540142,143.50363280099012,29.81831746031739,31.728920634920502
21500,21500.0,4.1373504,-9.4139772,0.46762694,0.63157652,-0.003027343800000001,0.0159912106,-50.4010008,35.382385,-130.573422,10.299128301930486,0.6330817848670262,144.36619949012075,29.765634920634856,31.71484126984114
21600,21600.0,3.41860044,-8.6657898,0.849261468,0.11769409199999999,0.32571107,0.013641358000000004,-50.5651848,35.068664399999996,-132.251586,9.355321184289275,0.3487980154991545,145.86709889026974,29.71295238095232,31.700761904761773
21700,21700.0,3.7628906000000004,-8.9679352,0.32230529399999996,0.243826292,0.225579834,0.344729616,-49.720037476190484,35.17492357142857,-132.92614142857144,9.731927435924868,0.4805057881771826,146.21503754054345,29.660269841269773,31.686682539682412
21800,21800.0,4.31451412,-8.584149,1.36737668,0.18907165199999998,0.216210938,0.42398376,-48.048705600000005,35.72448675,-133.9849825,9.705030146200624,0.5129512922650661,146.75458572709363,29.607587301587238,31.67260317460305
21900,21900.0,3.77199706,-9.3876372,0.25190734800000003,0.05463562,0.35532836799999995,0.17322082600000002,-46.95381105,36.20017985,-134.81826700000002,10.120614385659275,0.4027227905150324,147.2789651878893,29.554904761904698,31.658523809523683
22000,22000.0,4.357547675,-8.816017500000001,1.343849175,-0.21376038,0.6686744625000001,0.21870422,-45.68740805,36.5660091,-135.9178905,9.927818852335172,0.7363201182855441,147.9800775282061,29.502222222222162,31.64444444444432
22100,22100.0,4.880382599999999,-10.755927999999999,0.6492309475,-0.10351181,-0.14358139,-0.21538544,-45.446700799999995,36.47926295,-135.76332,11.831981294906926,0.2795476860256997,147.74269979595638,29.44953968253962,31.630365079364953
22200,22200.0,2.629234325,-8.853733250000003,-0.77561188,-1.366382625,-0.532413475,-0.41752243,-46.63734345,36.616896000000004,-132.0860265,9.27064612026244,1.528600638373701,144.78513608312926,29.39685714285708,31.61628571428559
22300,22300.0,3.4459572,-11.254814,-0.5329017675000001,-1.3959427,-0.314029695,-0.639629365,-48.7195588,36.33178715,-126.85005249999999,11.784269974730954,1.5710574524057972,140.6576982026825,29.34417460317454,31.602206349206227
22400,22400.0,3.39328765,-8.21448125,-0.315036775,-0.497394565,-0.0067024230000000025,-0.48756409,-50.28671265000001,34.90928695,-123.30184950000002,8.894246669333198,0.6995830371007462,137.66197777755593,29.291492063491997,31.58812698412686
22500,22500.0,2.2391052000000005,-7.02874612,-0.834809881,0.232528683,-0.409211736,-0.176290895,-51.48078990000001,34.21432475,-122.834851,7.427558538894571,0.5104538715058308,137.51130983611105,29.23880952380946,31.57404761904749
22600,22600.0,5.84584662,-8.9971465,-3.00504612,0.280467226,-0.1307556148,0.06702117889999999,-51.20048525,34.275283900000005,-123.251798,11.14512913982497,0.3207736203057241,137.79453913494723,29.186126984126922,31.55996825396813
22700,22700.0,5.24083554,-8.2301649,-2.61873928,0.238177494,-0.23525238,-0.36856841,-51.94023155,33.50089995,-123.697585,10.104757148888682,0.5030597702856617,138.27961720346795,29.133444444444386,31.545888888888765
22800,22800.0,4.05714111,-6.02522581,-1.45994113,0.34512634899999994,-0.346046449,-0.1848114011,-53.070069999999994,32.5128165,-122.5328055,7.412513838603799,0.5428308837715149,137.4329727078603,29.080761904761843,31.5318095238094
22900,22900.0,4.5140718,-10.362436,-1.8844284,1.0053787,0.0318023667,0.584844978,-52.690125,33.244324,-123.565674,11.459224792874606,1.1673713387903275,138.3832003597506,29.028079365079304,31.51773015873004
23000,23000.0,4.09340816,-7.838351189999999,-0.92698669,-0.0596694935,0.489765939,-0.1336807242,-51.8254088,33.7813565,-125.35057250000001,9.0277019218444,0.516281844008589,139.78492967119092,28.975396825396768,31.50365079365067
23100,23100.0,3.61013641,-9.147143699999999,-0.160360718,0.37112732200000004,0.342124941,0.615946962,-50.8332817,34.40879750000001,-127.1007534,9.859049092417546,0.7982103102677469,141.14760554291772,28.922714285714225,31.489571428571306
23200,23200.0,2.60135041,-9.7557463,1.5194648899999998,0.5478439334999999,-0.2463836625,0.178600308,-50.05432075,34.734192799999995,-127.9857605,10.21098885454834,0.6268710047472397,141.74718449636362,28.870031746031685,31.47549206349194
23300,23300.0,3.9965607000000003,-9.0524515,0.7182418795000001,0.3749038725,0.25178299,-0.01927032475,-49.74060055,34.612503100000005,-129.6749875,9.927000816368986,0.4524738433794401,143.13571845209592,28.817349206349142,31.461412698412577
23400,23400.0,2.8990669,-8.66554565,1.51958699,-0.03106460605,0.4366058315,-0.12542572125,-49.97673025,34.45312405,-130.900116,9.264163392023146,0.4578320487352574,144.28989417138268,28.764666666666606,31.447333333333212
23500,23500.0,3.820115665,-9.38380855,0.46176451674999996,0.2820587205,0.09679412789999998,0.3102691615,-49.45577,34.490967,-131.50685333333334,10.146877753341077,0.4311174247435957,144.6705027899135,28.71198412698407,31.43325396825385
23600,23600.0,4.819036105,-8.645611675,1.148242905,0.0752922079,0.30957259800000003,0.351920322,-48.52539090000001,35.1626591,-132.586366,9.967189433006244,0.4767356064821423,145.50097152858564,28.65930158730153,31.419174603174486
23700,23700.0,3.7638458,-8.921367300000002,1.030388636,0.0866462725,0.138439179,0.25327834850000003,-47.518769,35.9732055,-133.14606,9.7378807905422,0.3034862216225276,145.8766036072406,28.60661904761899,31.40509523809512
23800,23800.0,5.2000747500000015,-9.46424755,1.11951524,-0.191075898,0.3792480425000001,0.2258956915,-46.7703239,36.396789500000004,-133.41644300000002,10.85900003706003,0.4827392012052467,145.9871300588045,28.55393650793645,31.391015873015753
23900,23900.0,4.4076538,-10.6529724,-0.506573492,-0.526998898,-0.491131584,-0.477658084,-47.301788,36.6403196,-132.13104299999998,11.547485187154805,0.8645496029409306,145.04718514167925,28.50125396825391,31.376936507936392
24000,24000.0,0.705258176,-9.0957856,-0.423489372,-1.78486632,-0.429986576,-0.666845704,-49.7767642,35.7995606,-127.12432920000002,9.133681414838717,1.9540893630233152,141.13854041408766,28.448571428571373,31.362857142857024
24100,24100.0,3.6948943999999995,-10.2600858,-0.20824890000000001,-0.92690126,-0.55888366,-0.46358947799999994,-51.364442,35.0569153,-122.03628619999999,10.91009352090024,1.1804625768575858,136.96779354086823,28.395888888888827,31.348777777777663
24200,24200.0,3.1595489,-7.75216064,-0.8927581760000001,0.06315002400000001,-0.272964476,-0.36729430799999996,-52.7606201,33.7878416,-119.95635800000001,8.422559945881067,0.4714233467259616,135.33273812153504,28.34320634920629,31.334698412698287
24300,24300.0,3.46050418,-7.8730682,-2.64244076,0.23444519,-0.536297606,-0.430999752,-53.8174441,32.789001500000005,-119.6775808,8.996975229399235,0.7318226943656047,135.2561426332692,28.290523809523748,31.320619047618926
24400,24400.0,4.80126038,-8.5611634,-2.7092377,0.0043518064000000025,-0.230136106,-0.051126099,-54.43832389999999,32.025604200000004,-119.7537233,10.188898749317763,0.2368947948161427,135.38888635211487,28.237841269841212,31.30653968253957
24500,24500.0,5.42231148,-6.8112395999999995,-2.46358944,0.167330932,0.0741027816,-0.226892092,-55.0059519,31.823272499999998,-120.3373716,9.052182996490583,0.29712859041947803,136.08623356935607,28.185158730158676,31.292460317460197
24600,24600.0,4.3020690199999985,-7.42223818,-2.4781982000000005,0.643716438,-0.334750362,0.12038574199999999,-55.146333,32.0339963,-120.65704450000001,8.931985405011957,0.7365338401784939,136.47513829484686,28.132476190476126,31.27838095238084
24700,24700.0,4.24077462,-12.359082,-2.37595828,0.78327331,0.416052248,0.5117645200000001,-54.43588199999999,32.7810664,-123.598328,13.323526889910948,1.0403484917594386,138.97679999793354,28.079793650793594,31.264301587301468
24800,24800.0,1.77905886,-7.08010562,2.43231204,-0.015252689999999984,0.81701964,-0.0328002924,-54.0774525,32.9034418,-124.0112295,7.745827100597141,0.8351463891440127,139.23311934250566,28.02711111111105,31.250222222222103
24900,24900.0,5.15727528,-9.533203,0.118557742,0.40403442,0.5498474,0.398208604,-52.7301022,33.976592600000004,-126.3250732,10.840577566834492,0.7984388389001612,141.0426738837184,27.974428571428515,31.236142857142738
25000,25000.0,4.05689396,-9.682842800000001,0.9893219240000001,0.504592888,-0.161962892,0.249496452,-52.3001091,34.234466299999994,-127.57126,10.549003043763351,0.6096676882029322,142.06245769326662,27.92174603174597,31.222063492063374
25100,25100.0,4.120510715789473,-8.57827294736842,0.8905093631578948,0.41268038,0.1936099410526316,-0.10246758757894738,-52.1804808,33.96637005,-129.2428595,9.56043864513018,0.4680969903227513,143.45816970165498,27.869063492063443,31.20798412698401
25200,25200.0,4.03182136,-8.57414935,1.1881713550000002,0.1225402857,0.3631065365,0.151010899,-52.139739899999995,33.793029,-130.819094,9.550512844151383,0.41347258568672096,144.82479707676822,27.816380952380896,31.19390476190465
25300,25300.0,3.67670211,-9.21830815,0.2547241213,0.0822227456,0.2888618485,0.160170743,-51.0757451,34.162597,-132.151644,9.932489715556043,0.3451496728690424,145.73917661542808,27.76369841269836,31.179825396825287
25400,25400.0,4.169429099999999,-8.67416975,1.27165985,0.10602569619999999,0.35729827700000005,0.2364997885,-50.05020130000001,34.738159100000004,-133.13674799999998,9.714094821745492,0.4419825235592501,146.41451011339225,27.711015873015818,31.165746031745922
25500,25500.0,4.14494476,-8.622990549999999,1.360968025,-0.11831969975,0.5948532215,0.32986985,-48.840179600000006,35.4182439,-134.368741,9.665089446619671,0.6909171884499722,147.29173065891644,27.65833333333328,31.151666666666557
25600,25600.0,5.366893075,-9.6931945,1.912533565,-0.0787406915,0.3281082165,0.2131660435,-47.4630736,36.07742329999999,-135.319058,11.243907274420783,0.4003463148465395,147.87014314543674,27.605650793650735,31.13758730158719
25700,25700.0,3.06390307,-10.88311655,-1.320417035,-0.532546235,-0.24622497350000003,-0.279624938,-47.7339172,36.18896420000001,-134.67498999999998,11.393774054464554,0.6550254343486306,147.3958827507009,27.5529682539682,31.123507936507824
25800,25800.0,1.7523651000000002,-9.406791499999999,0.9461136,-1.90460205,-0.36862945,-0.7485504199999999,-49.562072799999996,36.472319,-129.73083499999998,9.616684959328866,2.0846934046120627,143.58590036284144,27.50028571428566,31.10942857142846
25900,25900.0,4.09029385,-9.954467999999999,-0.409004197,-1.1653061000000002,-0.34732055,-0.634040825,-51.36352539999999,35.7023628,-124.4595325,10.774542300828957,1.3748943291289946,139.2958827760032,27.44760317460312,31.09534920634909
26000,26000.0,3.3331375,-7.5357207499999985,-0.6735687100000001,0.0245895385,-0.5593032849999999,-0.49980925,-53.286132499999994,34.275971399999996,-122.5350945,8.274111756178048,0.7571499908502571,137.94628915709748,27.394920634920577,31.08126984126973
26100,26100.0,2.6741257000000003,-7.5620575,-2.08614345,0.325531,-0.2589035,-0.25213623,-54.5153819,33.0587764,-121.911774,8.296686642347064,0.4885426872411126,137.57658885919494,27.342238095238038,31.067190476190362
26200,26200.0,4.31954185,-7.89904025,-2.0478363,0.26161194,-0.159835815,0.054656982,-54.3591311,33.1517025,-121.75887949999999,9.233332404591392,0.3125382889326192,137.4016115776898,27.289555555555506,31.053111111111
26300,26300.0,6.7418825,-8.677757000000001,-3.8081741,0.33724975999999995,-0.28926085999999995,-0.234565735,-54.2848201,33.2955925,-122.32238600000001,11.631435007713812,0.5132549436267165,137.906765739948,27.236873015872966,31.039031746031643
26400,26400.0,2.3820342999999995,-8.6316758,-1.07698825,0.679725635,0.05694580000000001,0.27037811500000003,-54.767304,33.009642,-123.3064262,9.028608586331057,0.7462833198637416,138.9013850960034,27.184190476190423,31.024952380952268
26500,26500.0,5.8596115,-11.0970995,-4.10147095,0.034172060000000004,0.181053165,0.19740295600000002,-53.06613263157895,33.86937210526316,-124.84484189473685,13.210113532448206,0.44709420726558097,139.81914046707095,27.131507936507887,31.010873015872914
26600,26600.0,3.54322815,-8.2605665,-0.01515962000000004,0.449096675,0.54537202,0.5116501,-52.405549,34.516144000000004,-127.79007250000001,9.064793981953171,0.8755522847129473,142.3659105230986,27.07882539682534,30.99679365079355
26700,26700.0,1.4692459,-8.70109575,0.6839447000000001,0.56148529,0.005821229999999983,-0.10353851235,-51.39274575,34.30748025,-130.16853,8.861693068894944,0.6032850866053026,144.09069969065268,27.026142857142805,30.982714285714177
26800,26800.0,4.494919,-9.6803285,0.34636689000000004,0.53218842,0.18105316,0.0061874380000000034,-51.5678405,33.816528500000004,-131.54678,10.68204202986186,0.5707174115554636,145.283886163622,26.973460317460265,30.96863492063481
26900,26900.0,2.95424655,-8.457488999999999,0.780914305,0.107673645,0.423400875,-0.004463195499999996,-51.333618,33.42208925,-133.57887250000002,8.994967856172046,0.4407418035528105,146.9540931606236,26.92077777777773,30.954555555555448
27000,27000.0,4.207971265,-9.20974765,0.6497116249999999,0.190346527,0.5410606415,0.2558883655,-50.438309499999995,33.56399675,-134.80530249999998,10.146553346860502,0.6287519815930397,147.79396388903632,26.868095238095194,30.940476190476083
27100,27100.0,4.61307691,-8.507408400000001,1.594999665,-0.0031074523800000003,0.331520083,0.240007018,-48.768996,34.1068275,-136.8213675,9.81643967540404,0.41038720163228615,149.20382672790143,26.815412698412647,30.92639682539672
27200,27200.0,3.393103045,-9.49334565,0.77253113,0.080571746,0.3983200075,0.07026748749999999,-47.846222,34.201049999999995,-137.72812249999998,10.111887173806394,0.41413961723030696,149.76007559046712,26.76273015873011,30.912317460317354
27300,27300.0,4.52694697,-8.415588,0.971308905,-0.2305984505,0.60886383,0.256839755,-46.3223266,34.730529600000004,-138.75091799999998,9.60863055480316,0.6999679205082493,150.3456842804601,26.71004761904757,30.89823809523799
27400,27400.0,5.394236,-10.24314965,1.222703515,-0.1229537965,0.025624847999999992,0.2005424525,-44.86847,35.635376,-139.58099199999998,11.643921517418807,0.2584811924487659,150.88389196659858,26.65736507936503,30.884158730158624
27500,27500.0,3.374134035,-10.0560332,-1.80949401,-0.6820556655000001,-0.60297928,-0.1552001965,-45.48693263157895,36.21794026315789,-138.65726,10.76202865399934,0.9416264270526424,150.355341794361,26.60468253968249,30.87007936507926
27600,27600.0,2.94934384,-9.636154,-0.100994874,-1.33830564,-0.8978454699999999,-0.6902771,-47.563172,37.7484132,-133.934326,10.082388144066034,1.7543920691949075,147.0571498572315,26.551999999999946,30.85599999999989
27700,27700.0,3.45739432,-10.676437199999999,-0.58725585796,-0.968447864,0.0913543698,-0.71734314,-50.332642,37.4447628,-130.143434,11.280682707734163,1.2105430505516226,144.47455965060539,26.49931746031741,30.84192063492053
27800,27800.0,2.54495856,-7.5412291200000015,-0.1970001180000001,0.042910766399999994,-0.7071685759999999,-0.56905823,-52.901307200000005,36.8304442,-129.127506,7.9801105001125965,0.9228504394438272,144.32243941938842,26.44663492063487,30.82784126984117
27900,27900.0,2.8042542,-7.7904662999999985,-2.47412418,0.132397462,-0.56441652,-0.0583618172,-54.4534304,36.303709999999995,-127.793272,8.669234645532775,0.5845611047378677,143.5767086131215,26.393952380952328,30.8137619047618
28000,28000.0,4.8196930400000015,-7.15696104,-1.99312436,0.08701782400000001,0.06962585240000001,0.038146972880000005,-54.5727544,36.75872860000001,-127.79907,8.858439867377351,0.1208736469821742,143.7428033506221,26.34126984126979,30.79968253968244
28100,28100.0,6.2155152000000005,-7.70116272,-3.1665313999999998,0.54869382,-0.1310668948,-0.061773683800000014,-54.4042966,36.8945312,-128.79638799999998,10.391807964617524,0.5830785524717307,144.6013809916233,26.28858730158725,30.78560317460307
28200,28200.0,1.84897462,-9.3071962,-0.7732849199999999,0.6207092359999999,0.1733856184,0.292529304,-54.685365,36.582947,-130.599368,9.534206741503661,0.7151403020829329,146.23622982087764,26.235904761904717,30.77152380952371
28300,28300.0,4.531194265,-7.8670794000000015,0.07821192499999974,0.02272644035,1.0793388199999998,-0.0621017443,-54.0368656,37.212219399999995,-132.57873600000002,9.300076608075454,1.0819868219618538,147.92525013958922,26.18322222222217,30.757444444444342
28400,28400.0,4.385744454999998,-9.2766044,-0.798485564,0.41948471049999997,0.4443351805,0.40257033950000004,-52.6321412,37.8414906,-135.538024,10.315273131426725,0.7444911803530817,150.24219745268636,26.130539682539634,30.743365079364978
28500,28500.0,4.163800805,-9.46898005,0.8755989200000001,0.534053785,-0.21437836,0.1456848175,-51.9998172,37.7148438,-137.75513,10.385966148388807,0.596808041487295,151.99627996708705,26.077857142857088,30.729285714285606
28600,28600.0,3.265132905,-8.806923699999999,-0.04910202060000002,0.40062408549999995,0.2151466355,-0.080574036,-52.2180176,36.6253652,-139.381718,9.39553085445062,0.4672077864325925,153.28210835781695,26.025174603174552,30.71520634920625
28700,28700.0,4.139675105,-8.96596115,0.998367315,0.237691498,0.196710967,0.16538925,-51.6583252,36.494752000000005,-140.703732,9.926256141179888,0.35089896612771243,154.26602896710975,25.972492063492016,30.701126984126887
28800,28800.0,4.004888005,-9.212505475,0.6942985555,0.218840792,0.260253142,0.3182601845,-50.36163300000001,36.89239439999999,-142.50671,10.076170944686623,0.4661025225875967,155.58128166258973,25.91980952380948,30.68704761904752
28900,28900.0,4.4548805599999985,-8.755864599999999,1.368872805,0.192314908,0.17007751599999998,0.31277007900000003,-49.315796,37.5341794,-143.317868,9.919291749198647,0.4053027176742484,156.14393584806191,25.867126984126934,30.672968253968158
29000,29000.0,4.02756956,-9.08274085,1.22479245,0.074015808,0.10829467599999999,0.24576416399999998,-48.562926,37.762145,-144.558716,10.010937321723086,0.27885196289907105,157.10371248833857,25.814444444444398,30.65888888888879
29100,29100.0,4.4244096,-9.588992300000001,1.91755523,-0.152134705,0.44652405100000003,0.223391724,-47.04978965,38.5151675,-145.434805,10.735373807865539,0.5224726619020089,157.63373510651715,25.76176190476186,30.644809523809425
29200,29200.0,3.9115662,-10.6040131,-0.425524902,-0.15596618420000002,-0.190293882,0.029840088599999995,-46.834945000000005,38.87740955,-145.15381200000002,11.319406436222794,0.2509286905296704,157.3995953948502,25.709079365079322,30.63073015873006
29300,29300.0,4.24784408,-9.0159406,-0.019944764000000004,-1.47455296,-0.636433409,-0.413635254,-48.276673,40.7793429,-141.7168385,9.983496635343199,1.6596492692887823,155.16872960857918,25.65639682539678,30.616650793650688
29400,29400.0,2.2975173800000004,-11.263737400000002,-0.27636108096999995,-1.41863246,-0.527990732,-0.77976532,-52.8818512,41.851501299999995,-133.94706699999998,11.500656606347489,1.7081078651420083,149.9667958543447,25.60371428571424,30.60257142857133
29500,29500.0,3.03002625,-8.0805209,-0.446351621,-0.529670711,-0.322918705,-0.6509704620000001,-55.7946011,40.98754835,-129.373851,8.649613371828286,0.9065631428168068,146.7335660870429,25.5510317460317,30.58849206349197
29600,29600.0,1.749965625,-8.045390825,-1.42624285,0.2954292275,-0.4839363125,-0.35893632000000003,-57.99682605,39.51476895,-127.423856,8.360821979182006,0.6783810706073052,145.47132864360324,25.498349206349157,30.5744126984126
29700,29700.0,5.43104945,-8.3715975,-2.818176325,0.32286453,-0.002700805749999993,-0.100337985,-59.12521379999999,38.4467323,-128.641211,10.374776460823675,0.3392875441175497,146.70565603328365,25.44566666666662,30.56033333333324
29800,29800.0,5.43704225,-8.7211495,-3.323047575,0.282386785,-0.15103912,-0.1738433875,-59.75463905,37.50701935,-129.510572,10.804261702059105,0.36944424488014016,147.48013775545073,25.392984126984075,30.54625396825387
29900,29900.0,3.178707175,-6.410446125,-2.35100555,0.19476700125,-0.3363952675,-0.2635917675,-61.26846389999999,36.07376075,-127.74879409999998,7.547988629260688,0.4771934931549234,146.20169508390424,25.340301587301546,30.53217460317451
30000,30000.0,4.2405357499999985,-11.269478,-2.5805472999999997,0.9079589875,0.19969940149999998,0.85546876,-60.27595475,37.19467135,-129.734195,12.329218858547287,1.2639900476896109,147.8097720977849,25.287619047619003,30.518095238095146
30100,30100.0,1.5617256225,-6.569957825,0.8117370499999998,-0.028938293500000007,1.07001875,-0.07370758,-59.33494525,36.853484,-132.0751925,6.9364351174325725,1.074267331608112,149.4079339407059,25.234936507936464,30.504015873015774
30200,30200.0,5.607929225,-9.87305825,0.26316833510000004,0.418468475,0.483325955,0.50179672,-57.67456050000001,37.82821775,-135.20202450000002,11.363005251816292,0.815003921409949,151.77955685689957,25.182253968253928,30.48993650793641
30300,30300.0,4.0707914800000005,-9.7436522,0.835626216,0.6439331079999999,-0.289581296,0.22052002,-57.2737889,37.51197790000001,-137.1202805,10.602678443376123,0.7397780833190024,153.2625920580605,25.129571428571385,30.475857142857052
30400,30400.0,3.50647884,-8.4390536,0.3783264160000001,0.14539184519999998,0.34617309399999996,-0.16787719599999998,-57.38723750000001,36.5840904,-138.221204,9.149588815145716,0.4150581189665648,154.06750290772104,25.076888888888845,30.46177777777768
30500,30500.0,3.70614924,-8.877190800000001,0.777197262,0.177130128,0.202569578,0.178125002,-56.9177244,36.09970075,-139.58778700000002,9.651726476418565,0.32384236432221164,155.00829237489427,25.024206349206306,30.447698412698323
30600,30600.0,3.60415646,-9.1008088,-0.063635254,0.223587036,0.33317261,0.406515514,-55.85136445,36.17065405,-140.87303599999996,9.792476536922372,0.5713133212819952,155.79780605550738,24.97152380952377,30.43361904761895
30700,30700.0,5.00571896,-9.014856199999999,1.11334536,0.20248413,0.30525817600000005,0.339407348,-53.9595792,36.935425,-142.973477,10.37149002308779,0.5003983244347229,157.21743886172302,24.91884126984123,30.419539682539593
30800,30800.0,3.6618591,-9.0668121,0.35414429000000003,0.0433380124,0.256475826,0.13188782,-53.371470631578944,37.01613578947368,-143.86018684210526,9.784901124882348,0.29479309840909457,157.84317644978256,24.86615873015869,30.40546031746023
30900,30900.0,4.44930495,-9.19616035,1.4372200199999998,-0.1690216075,0.4027397165,0.11671066275,-51.6938783,37.7400208,-143.952791,10.317002589773148,0.4527998003502465,157.54044784291713,24.813476190476152,30.391380952380857
31000,31000.0,4.332480495,-11.16419945,-0.21836242800000005,-0.34628525600000004,-0.14811553940000002,-0.2275779725,-51.5905761,37.62207,-142.99622,11.981889701557893,0.44242236881475305,156.6044200316025,24.76079365079361,30.3773015873015
31100,31100.0,3.0390075800000003,-9.0145662,-0.32922134549999993,-1.66033479,-0.67697067,-0.73672561,-54.02435229999999,38.314361700000006,-137.643891,9.530786351741446,1.9387924185795449,152.7499736739989,24.70811111111107,30.363222222222127
31200,31200.0,3.07917021,-11.4680234,-0.6930190795000001,-1.3607277,-0.444200135,-0.67312544,-57.375488,37.572173,-130.173641,11.898559510417119,1.5827907631858191,147.13564126046103,24.655428571428534,30.349142857142766
31300,31300.0,3.01966775,-7.4117592000000005,-0.2657073965,-0.26095962500000003,-0.17214050674999998,-0.7483398490000001,-59.623107700000006,35.64193750000001,-127.5425746,8.010004945769065,0.8152436548412405,145.23231142506575,24.602746031745987,30.335063492063398
31400,31400.0,1.94491499,-7.165824095,-1.539428685,0.3775634765,-0.4154922495,-0.233543394,-60.823364600000005,34.0589904,-125.54000890000002,7.583670097369352,0.6101949651939933,143.59594431582443,24.55006349206345,30.320984126984037
31500,31500.0,5.241317771428571,-7.846110714285714,-3.2973502285714287,0.2928793785714285,0.13996233657142854,0.2212241,-60.629577299999994,34.0307617,-125.8802824,9.997693172650262,0.393408043954814,143.80504773412892,24.49738095238091,30.306904761904672
31600,31600.0,6.19049681,-8.159657300000001,-3.21991884,0.410319515,-0.048612976200000005,0.051251220499999986,-60.2235414,34.1926575,-126.485593,10.736493630594893,0.4171772368127134,144.2034534103319,24.44469841269837,30.292825396825307
31700,31700.0,2.25023805,-7.792742749999999,-2.1060104600000003,0.4981048579999999,0.170507817,0.115806575,-60.2307128,33.123931899999995,-127.116092,8.40217656703187,0.5498937881206998,144.51104235110282,24.392015873015836,30.278746031745943
31800,31800.0,5.7779663,-9.378782699999999,-0.956443786,0.242970279,0.58297423,0.07894439749999999,-58.99154670000001,34.153748,-127.99026840000002,11.082155952999477,0.6900883659379506,145.01034063780273,24.339333333333286,30.264666666666574
31900,31900.0,2.98238688,-8.629757699999999,0.34863433299999996,0.374952695,0.461543275,0.51187136,-57.9257204,34.3206787,-130.912633,9.143393957602834,0.7849300259109722,147.21217100438332,24.286650793650757,30.25058730158721
32000,32000.0,3.18779906,-9.516682099999999,1.6620971999999998,0.5117370400000001,-0.06438903839999999,0.230856322,-56.74804720000001,34.247893999999995,-133.30642999999998,10.178478251758886,0.5723109199354335,148.87533110942303,24.23396825396821,30.23650793650785
32100,32100.0,3.94939878,-9.4600599,0.1251464834999999,0.56765747,-0.11381225329999994,-0.07477722190000001,-56.615754,33.84536729999999,-134.59243899999998,10.257625470713352,0.5866465495247263,149.88660202512347,24.181285714285675,30.222428571428484
32200,32200.0,3.613072135,-9.08232095,1.143332673,0.0098342893,0.4546180735,0.08113326775,-55.9950257,33.2792664,-135.81161699999998,9.843216098345929,0.462227680730605,150.62459741619352,24.12860317460314,30.20834920634912
32300,32300.0,3.69209059,-9.04484195,0.843579098,0.1942359955,0.297540281,0.32555237000000004,-54.9459822,33.335266000000004,-136.928713,9.805732125445155,0.4819664421654065,151.26062433566136,24.075920634920603,30.194269841269755
32400,32400.0,4.21222612,-9.0426296,1.0597839135,0.091814425,0.26606216650000003,0.35963516,-53.40347289999999,33.869782,-137.89611499999998,10.031713324787768,0.4567618310156353,151.7051368839506,24.023238095238057,30.18019047619039
32500,32500.0,3.20689389,-9.49124025,-0.1821624725,0.186511996,0.19650040100000002,0.2272270215,-51.9445803,34.601591400000004,-138.27576000000002,10.021199011074627,0.3547403171116633,151.70932106027288,23.97055555555552,30.166111111111025
32600,32600.0,5.21677699,-9.63920555,2.08497695,-0.16481094,0.2791107035,0.19128341450000005,-50.2779405,34.43786585,-138.968276,11.157279705275917,0.376881563537694,151.74332811733206,23.917873015872974,30.15203174603166
32700,32700.0,2.76373523,-10.877187699999999,-1.365792815,-0.5427665695,-0.1751670865,-0.2127204915,-50.427015999999995,35.1744844,-137.138138,11.307986582572884,0.6091993773390917,150.2898017028394,23.865190476190442,30.137952380952296
32800,32800.0,1.483072645,-9.15205,-0.7536453025,-1.653089115,-0.811186195,-0.7249626,-51.944578799999995,35.8328244,-131.93985,9.30851847337394,1.9792886193079888,146.25467293677224,23.8125079365079,30.12387301587293
32900,32900.0,2.52700879,-10.7950735,-0.986731722,-1.24414442,-0.27120437399999997,-0.654653915,-53.86703530000001,34.78256225,-126.141507,11.131008626832454,1.4319065199484742,141.50327996555274,23.759825396825363,30.10979365079357
33000,33000.0,2.215572325,-7.42786125,-0.29617614350000004,-0.17301330199999998,-0.4698776285,-0.455770867,-55.51696735,33.72001565,-123.675,7.757854658682464,0.6811460422768351,139.69499456601986,23.70714285714282,30.095714285714198
33100,33100.0,2.329956,-7.696136500000001,-1.7994385,0.39103699999999997,-0.27914429999999996,0.0029907227,-55.71334835,32.797776899999995,-122.3561835,8.239975176167128,0.480458551816656,138.38608881174864,23.65446031746028,30.08163492063484
33200,33200.0,5.6039184199999985,-8.38978795,-3.5318191100000003,0.2747673025,0.257332613,-0.196531681,-55.71418815,32.6980577,-123.4221648,10.68976014714823,0.4266325792759981,139.30639859885508,23.601777777777738,30.06755555555547
33300,33300.0,5.46941545,-8.225072599999999,-3.5384719600000003,0.22283858899999998,-0.708448787,-0.2253540075,-56.17919875,32.03933705,-122.68341299999999,10.492625014048986,0.7761474277568445,138.68620051070906,23.549095238095198,30.053476190476108
33400,33400.0,3.021043425,-8.266248735,-1.82074201,0.7211151090000001,-0.06432800250000001,0.249871827,-55.92628515,31.916275399999996,-123.10303,8.989237435808448,0.7671289996509868,138.92723144601135,23.496412698412666,30.039396825396746
33500,33500.0,5.943107035,-12.06112205,-3.8914864000000002,0.4499023435,-0.2544311524999999,0.183394621,-55.12825045,32.3260505,-124.7470853,14.000355007377054,0.5567665355715115,140.16395743541494,23.443730158730126,30.02531746031738
33600,33600.0,0.8685470759999999,-8.771913099999999,2.07545845,0.21995544600000003,0.393899534,0.27452240414999995,-55.153122100000004,32.4943545,-126.29730225,9.057456063280958,0.5355005562174109,141.59369735884619,23.391047619047583,30.011238095238014
33700,33700.0,3.66275554,-9.69834595,0.5696861035,0.3064590495,0.7596519475,0.0587631226,-53.79486,33.0888362,-128.944095,10.38895039517493,0.8218765114644763,143.5804255766302,23.338365079365047,29.99715873015865
33800,33800.0,4.853454599999999,-9.898804,1.0388947,0.5636139,-0.35157776,0.33215332,-53.31565875,33.36623985,-130.080713,11.073465780069276,0.7426933267418323,144.48826129287843,23.285682539682504,29.983079365079284
33900,33900.0,3.63575974,-8.8777259,0.496834564,0.41586305,0.23682404010000002,-0.04616546725,-53.124847499999994,32.89772045,-131.4945175,9.607445537480267,0.4838569825891083,145.5861224975251,23.232999999999965,29.968999999999923
34000,34000.0,3.74583055,-8.957165750000003,1.4108253065,0.10773467980000001,0.353039549,0.09667816130000001,-52.93731700000001,32.8125,-132.95746,9.811610054263696,0.381651959838672,146.82202102225702,23.180317460317426,29.954920634920555
34100,34100.0,3.42758026,-8.942320599999997,0.58417129575,0.07301101900000001,0.4517951975,0.28363037550000003,-51.7921458,33.1782533,-134.5875525,9.59525225123098,0.5387667368586945,147.97648705249898,23.12763492063489,29.94084126984119
34200,34200.0,4.234902335,-8.78357905,1.85578844,0.0741844176,0.15501403449999998,0.27478791649999995,-50.5340565,33.506470199999995,-135.446703,9.926371219664864,0.324337366636782,148.39880227354388,23.074952380952354,29.926761904761825
34300,34300.0,3.361798895,-9.1884469,0.749011975,-0.069211576,0.5672057985,0.1084564235,-49.465179799999994,33.93524155,-136.581568,9.813250313952569,0.5817832097289047,149.17418444944653,23.022269841269807,29.91268253968246
34400,34400.0,5.38172988,-9.7932804,2.002794615,-0.1535156265,0.228239439,0.17119827799999998,-48.095703,35.17151,-137.46338,11.352827117113408,0.3248777184249506,149.82126886316482,22.96958730158727,29.898603174603096
34500,34500.0,2.428062415,-10.2906656,-1.7476051,-0.686365535,-0.4686584485,-0.3404968285,-48.559352095238104,34.771947380952376,-136.1800457142857,10.717853055401289,0.9006459605206802,148.7014403726896,22.916904761904732,29.88452380952373
34600,34600.0,1.6128997999999999,-9.35173,0.5133667000000001,-1.5104523,-0.49113464,-0.47105408,-49.72229,35.533142,-131.36292,9.503675348327556,1.656674781442594,144.88314965572314,22.86422222222219,29.87044444444437
34700,34700.0,3.178711,-10.198074,-0.299469,-1.1035309,-0.101242065,-0.48916626,-51.161194,35.806274,-126.69983,10.686187281390776,1.2113273846911337,141.2529785572595,22.81153968253965,29.856365079365002
34800,34800.0,3.302002,-8.081603999999999,-0.8118286,-0.040390015,-0.3356018,-0.6755829000000001,-52.87460895238095,34.69499823809524,-125.05158952380951,8.767816495376598,0.7554284719596888,140.13350262483243,22.758857142857106,29.84228571428564
34900,34900.0,2.4664307,-8.216873,-2.8361206,0.0022125244,-0.5166930999999999,-0.33149720000000005,-54.43611105,33.4661106,-124.4746382,9.035699328429198,0.6138949816211813,139.91861984499388,22.70617460317457,29.828206349206273
35000,35000.0,4.179489,-7.5464934999999995,-1.7084656000000003,0.012878418,-0.17687988,0.03175354,-54.54902615,33.35288955,-123.0410745,8.794120032899631,0.18016834600319975,138.66188248767978,22.65349206349203,29.81412698412691
35100,35100.0,5.4304504,-8.197723,-3.6405792000000003,0.46881104,-0.25144958,0.02217102,-54.5327004,33.81652835,-123.244247,10.485526731789003,0.5324492808107627,138.94796348324272,22.60080952380949,29.800047619047547
35200,35200.0,3.20851361,-7.8282995999999985,-3.380570965,0.28269882150000003,-0.15524368100000002,0.051674652,-54.4588465,33.814697599999995,-123.8445285,9.118100360639335,0.3369174140503737,139.4513144679105,22.54812698412695,29.785968253968182
35300,35300.0,7.606491065,-14.221888199999999,-5.2711508,0.32761000300000004,-0.1765060423,0.5870170585000001,-53.037795200000005,35.41343525,-126.30759850000001,16.975639981498404,0.6955014068140858,141.49470439653058,22.495444444444413,29.771888888888807
35400,35400.0,-0.14894104600000002,-7.0781249850000005,-0.29845504850000004,0.49858016899999996,0.0008102417250000007,0.200012208,-52.73612955,35.5282595,-128.08189850000002,7.092926612494437,0.53823172925911,142.99766233332932,22.442761904761877,29.757809523809446
35500,35500.0,3.640782145,-9.9614749,-0.4257019005,0.38587419,0.517778005,0.16641006,-51.480103,35.638428000000005,-131.15233999999998,10.618009348586416,0.6672002061985043,145.33146542534206,22.39007936507933,29.743730158730088
35600,35600.0,4.613071485,-9.6767309,1.432200595,0.5246208099999999,0.02120590195,0.2302192715,-51.00921565,36.1162565,-131.96663600000002,10.816050501255422,0.5739256868768802,146.0189044397451,22.337396825396794,29.729650793650716
35700,35700.0,3.11956786,-8.706612100000001,0.0296653737,0.321046448,0.197194671,-0.09528503445,-50.8249648,35.3906253,-133.8618435,9.250200410755113,0.3905941777222711,147.49471369413047,22.284714285714255,29.71557142857136
35800,35800.0,3.588059225,-8.804172075,1.2161201499999998,0.2314575165,0.115594484,0.196118168,-50.619507,35.081482,-134.99298000000002,9.584763664232575,0.32468385072024203,148.3783997673508,22.23203174603172,29.701492063491987
35900,35900.0,3.401483985,-8.9766696,0.322776032,0.19023818850000002,0.2775093105,0.24272613899999998,-49.35913,35.55298,-136.15875,9.606135356712693,0.415264718590231,149.1292838539762,22.179349206349176,29.687412698412622
36000,36000.0,4.05737606,-8.7850201,1.42890013,0.174798587,0.243582149,0.341313176,-48.197936999999996,36.213684,-137.32452,9.7820071495873,0.4543957863710537,149.974984024464,22.12666666666664,29.673333333333265
36100,36100.0,3.95502779,-9.3216755,1.23975529,-0.068516543,0.44843293,0.207841495,-47.032166,36.49292,-137.84485,10.201871596448614,0.4991899655002237,150.14979360725232,22.073984126984097,29.659253968253893
36200,36200.0,4.597151,-9.8648075,1.86213836,-0.134448241,0.13534698709999998,0.21784972800000002,-45.378113,36.865234,-138.54065,11.041865211005677,0.29098949132314983,150.371973185624,22.021301587301558,29.645174603174528
36300,36300.0,3.03541263,-10.8647418,-1.37159883,-0.506015015,-0.304072582,-0.261509703,-45.762634000000006,37.2406,-137.26196000000002,11.365927564101035,0.6465807092879031,149.40524295358432,21.96861904761902,29.631095238095174
36400,36400.0,1.42879031,-8.716418899999999,-0.4962814304,-1.64404296,-0.6986404429999999,-0.69422914,-47.88208,37.98523,-131.4743,8.848689281884676,1.916515807212436,144.9864229635634,21.915936507936483,29.6170158730158
36500,36500.0,3.071542,-11.50185094736842,-1.0950437736842105,-1.0250292421052631,-0.37916646,-0.5290808452631579,-49.815223571428575,38.03892485714285,-125.48588047619049,11.955379616671765,1.214433363522144,140.26846400128116,21.863253968253943,29.60293650793644
36600,36600.0,2.90654371,-8.38608765,-0.291387173,-0.10627746224999997,-0.36127625,-0.726503751,-51.37039225,36.44538885,-123.3441162,8.883556949592563,0.8233056859345371,138.4954044398909,21.8105714285714,29.588857142857076
36700,36700.0,1.194329065,-7.607011310000002,-2.1741921000000004,0.09570083645,-0.4977851895,-0.4362174945,-53.09043929999999,34.8448197,-121.82845800000001,8.004927346724637,0.6725064712642688,137.38607089863993,21.75788888888886,29.57477777777771
36800,36800.0,4.24442518,-7.10710753,-1.899040255,0.03604202325,-0.102682497,0.107817841,-52.975233499999995,34.57214345,-121.67396529999999,8.493934680015336,0.15953101943474515,137.1355695165652,21.705206349206318,29.560698412698343
36900,36900.0,6.304990365,-8.885627699999997,-4.0284332350000005,0.577353664,-0.3300682085,-0.008784483999999999,-52.025985,34.9177547,-121.7266075,11.616393624411545,0.6683672973706424,136.90629269739142,21.65252380952378,29.54661904761898
37000,37000.0,2.31577831,-6.54883573,-2.344413755,0.24308242600000002,-0.5373580904999999,-0.13767853095000002,-52.87117065,34.184265,-121.6837305,7.338623303475523,0.6171185895494027,137.00678651019473,21.59984126984124,29.53253968253961
37100,37100.0,5.62337265,-13.06986475,-3.08800125,0.7525421175,0.236663818,0.5800430325,-51.118927299999996,35.150911,-123.345869,14.593117420349715,0.9915588647565968,138.06865344695964,21.5471587301587,29.51846031746025
37200,37200.0,-0.777230834,-6.53614808,1.93575748,0.0693359384,0.798474114,0.020675658800000003,-51.14410415,35.2309417,-125.0932325,6.861038991190734,0.8313101698487233,139.66121816838606,21.494476190476163,29.504380952380885
37300,37300.0,4.99566034,-10.602929800000002,0.5638733,0.42257690600000003,0.6148315480000001,0.444219972,-49.4062035,36.27792325,-127.5701135,11.740531740660925,0.8730082964990423,141.53160687466467,21.441793650793624,29.49030158730152
37400,37400.0,3.6319244,-9.6411866,1.18277892,0.561267092,-0.057775876600000005,0.357510376,-48.33305345,36.557083299999995,-129.06676900000002,10.37458204115399,0.6702420645490873,142.58593102329553,21.389111111111085,29.476222222222155
37500,37500.0,3.42076116,-8.9044922,-0.2441681,0.373361204,0.172534178,-0.079251097,-47.86010735,36.36764475,-130.9667235,9.545738676710117,0.4265989116822643,144.10232981343287,21.33642857142855,29.462142857142787
37600,37600.0,3.03217472,-8.719659599999998,1.009915174,0.22507019,0.179986576,0.120599368,-47.2963715,36.37069680000001,-132.24426,9.288561528522338,0.3129513452467726,145.08039093909517,21.28374603174601,29.448063492063426
37700,37700.0,3.62522586,-9.115658400000001,0.8238891559999999,0.15859679999999998,0.39560242,0.23287353800000002,-46.1946869,36.29043575,-132.78564450000002,9.845111085768654,0.4858604222580829,145.19983584846054,21.231063492063466,29.433984126984058
37800,37800.0,3.99602515,-9.00965525,1.01613995,0.12605286,0.2361793475,0.219768525,-44.57412715,37.0236965,-133.76029499999999,9.908399761137524,0.3463802027465481,145.77182940885004,21.178380952380927,29.419904761904696
37900,37900.0,3.132919325,-8.993797,1.009258275,0.042964935499999996,0.2508239775,0.10019683875,-43.77502455,36.751024,-134.2810865,9.580581656088741,0.27367221246057205,145.93939308446105,21.125698412698387,29.40582539682533
38000,38000.0,3.1604537999999995,-9.08117675,1.7332039000000001,-0.16662979249999998,0.771205925,0.301532745,-42.41554275,37.5790396,-134.8352045,9.773278510507264,0.8453188813119686,146.25937323214995,21.073015873015848,29.391746031745967
38100,38100.0,4.5009003000000005,-11.459217,0.906307244,0.015529632250000001,-0.016559600499999997,0.132427212,-40.765685999999995,38.12927379999999,-135.13656600000002,12.36159219071234,0.1450343155669314,146.210720650182,21.02033333333331,29.377666666666602
38200,38200.0,3.4986343,-8.666091999999999,-0.8339729050000001,-1.4795684999999998,-0.21815109,-0.2947464,-41.0679623,38.5395816,-131.23001399999998,9.395174130201678,1.5254801477306144,142.8049794996674,20.96765079365077,29.363587301587238
38300,38300.0,2.3188934,-10.8846095,0.06803513,-1.4412193000000002,-0.9318885825,-0.83137512,-43.411406,38.7800595,-124.35470600000001,11.130199412929493,1.9101074962442228,137.3048007291675,20.91496825396823,29.349507936507873
38400,38400.0,2.8560867,-9.331978,-1.015937825,-0.70564652,-0.08020401149999999,-0.851081845,-45.8502196,37.3271166,-120.340574,9.812038693533317,1.1121123945482965,134.08015947629508,20.86228571428569,29.335428571428512
38500,38500.0,2.23000643,-7.69804852,-0.7995010359999999,0.0849960345,-0.6903335580000001,-0.590678403,-47.7569585,35.92162929999999,-118.76785,8.059955755217652,0.9145628902391124,132.95468689159003,20.809603174603147,29.321349206349144
38600,38600.0,4.07976231,-8.103390899999999,-3.39528965,0.005308532900000003,-0.473875426,-0.046971130599999994,-48.8514706,35.66726660000001,-117.59658700000001,9.695920011282665,0.4774057140581312,132.2406486858647,20.756920634920608,29.30726984126978
38700,38700.0,3.8053864,-7.33556517,-1.82984161,0.275674435,0.004321290200000001,0.0599884026,-48.966370700000006,35.655517200000006,-117.09838700000002,8.466558961245575,0.29523497203873506,131.8372411163619,20.704238095238075,29.29319047619041
38800,38800.0,6.13280021,-8.968052499999999,-4.44215698,0.379856873,-0.38737029,-0.236163331,-49.155120700000005,35.8572387,-117.43225100000001,11.745322147167096,0.5993102476512907,132.2584982384948,20.65155555555553,29.27911111111105
38900,38900.0,1.3502533,-8.10697939,-0.97654724,0.583747858,0.187442019,0.425157168,-49.219970700000005,36.4764407,-118.035123,8.27893406940841,0.7492681283242894,132.98672951262265,20.598873015872996,29.265031746031685
39000,39000.0,6.74858399,-10.503208500000001,-3.87617199,0.18245697,0.2997207497,-0.0794540403,-48.2876595,37.4525451,-119.5364375,13.143428693513727,0.4560671740413328,134.251112515215,20.546190476190453,29.25095238095232
39100,39100.0,1.77744597,-8.14420853,-0.2150199885,0.456985476,0.5006340025,0.495464335,-48.0020141,38.1604006,-121.66610449999999,8.364552560706294,0.8443603204259493,136.24636224296265,20.493507936507914,29.23687301587296
39200,39200.0,2.48391112,-9.27026025,0.9093673825,0.43583831700000003,0.0392173735,0.2806014975,-46.966553000000005,39.082336,-123.87085,9.641749897957755,0.530935028671513,138.12050379158484,20.44082539682537,29.22279365079359
39300,39300.0,3.980648045,-9.47819655,-0.040898124499999966,0.5401244945,0.193461608,0.015825653000000002,-46.3813778,39.2477417,-125.503844,10.29289057810306,0.5761217356235248,139.43759371370356,20.38814285714284,29.208714285714226
39400,39400.0,3.06599808,-8.76902935,1.146388235,0.098571016,0.31432113500000003,0.0512504585,-46.3806148,39.0116886,-125.73730549999999,9.36061567594675,0.3407862209260875,139.58137174977682,20.335460317460296,29.19463492063486
39500,39500.0,3.38982087,-9.073458925,0.1805023205,0.2213508605,0.2649948025,0.254981232,-45.9030148,39.657898200000005,-126.88278159999999,9.688483165349112,0.4296472042045845,140.63817566081838,20.282777777777763,29.180555555555497
39600,39600.0,3.64647523,-8.859420550000003,1.109516935,0.2558631885,0.239906308,0.394319153,-44.8988343,40.1506032,-128.23227,9.645338801891347,0.5306400619713774,141.67396199796963,20.230095238095213,29.166476190476125
39700,39700.0,3.33529362,-8.8647432,0.89140625,0.18971252,0.17380371,0.22669677800000002,-43.7503036,40.6277465,-128.54812900000002,9.513523070822103,0.3443102758895727,141.73690565055026,20.17741269841268,29.15239682539677
39800,39800.0,4.28435058,-8.9018584,1.30177612,-0.154583738,0.44416809799999996,0.128903196,-42.8910833,41.1773683,-129.735103,9.969830048480016,0.4899911069791802,142.71097619945684,20.124730158730138,29.138317460317406
39900,39900.0,3.50072936,-12.0926056,0.04409486000000007,-0.134564206,-0.41741638,-0.188540646,-43.119009157894745,41.41107,-128.11970421052632,12.603030165944213,0.4787678972655524,141.3819101149527,20.072047619047602,29.124238095238038
40000,40000.0,2.70489804,-9.7443722,-0.292050172,-1.63274842,-0.5036956779999999,-0.73459474,-44.9765031,41.45179705,-123.5147085,10.139766316299474,1.8613764932479184,137.83106650105904,20.01936507936506,29.110158730158677
40100,40100.0,2.6737702000000003,-11.1835298,-0.6420837420000001,-1.42991638,-0.589349362,-0.488739012,-46.7723835,39.964218100000004,-115.684358,11.520348275592566,1.6237769346545392,131.0258316194191,19.96668253968252,29.09607936507931
40200,40200.0,2.69699704,-8.18742704,-0.489328016,-0.39895935200000004,-0.07589111440000001,-0.65768432,-48.4820565,38.093567,-112.001645,8.634339811457501,0.7806894657613012,127.85148570360569,19.91399999999998,29.081999999999947
40300,40300.0,2.50450442,-7.39590456,-2.12265624,0.201641846,-0.18518371399999997,-0.34108887200000004,-49.63603894736842,37.23385431578947,-111.16566157894738,8.095570551624473,0.4396154610915452,127.31026689215985,19.86131746031744,29.06792063492058
40400,40400.0,4.196810194736842,-8.10207552631579,-3.355793194736842,0.2177356947368421,0.01935296268421053,-0.011641653210526312,-50.26916465,37.35595825,-111.09344475,9.72360682032748,0.2267624593946123,127.53134350116693,19.808634920634898,29.053841269841215
40500,40500.0,5.1917511250000015,-8.37117945,-2.879998775,0.3547638,-0.1031623845,-0.01187133805,-50.33927855,37.77015685,-112.55226189999999,10.263099947744443,0.3767918796596294,128.95215356742133,19.75595238095236,29.039761904761853
40600,40600.0,3.630967015,-7.501364165,-3.315383875,0.2350395175,-0.2446784965,-0.118395233,-50.502700399999995,37.97203145,-111.98593100000001,8.973725954015352,0.37221933291764897,128.58171877578957,19.703269841269826,29.025682539682485
40700,40700.0,2.786003125,-9.41977705,-2.385054785,0.664279938,0.3323738095,0.72566757,-49.27764929999999,39.16687025,-113.96385359999998,10.134874152029523,1.0395137244729833,130.19290575670954,19.650587301587287,29.01160317460312
40800,40800.0,2.63079307,-8.5799545,-0.4696930350000002,0.1082641578,0.9747299429999999,0.1158592208,-48.29345575,40.42388975,-115.68764025,9.1012102712834,0.989720722669884,131.71936392927316,19.597904761904744,28.997523809523763
40900,40900.0,3.75648723,-9.7835862,-0.020725250749999997,0.2875488325,0.7875602829999999,0.275272367,-48.247146799999996,41.28822345,-118.5167675,10.482912874241986,0.8874530551981038,134.4572323819635,19.545222222222204,28.98344444444439
41000,41000.0,3.3618622000000005,-9.6677625,0.41999055,0.45122528,0.083045962,0.32310486,-47.99354575,41.71226535,-120.6863415,10.252875633466976,0.5690621042794581,136.41294877715654,19.492539682539665,28.969365079365023
41100,41100.0,3.6802979,-9.0273135,0.06265258800000001,0.25627899,0.29930114,-0.08276367200000001,-48.04779075,41.857759,-122.2429685,9.74942924774713,0.4159193423564549,137.85504058705644,19.439857142857125,28.955285714285658
41200,41200.0,3.5043182999999996,-8.8746795,0.8844604500000001,0.171592715,0.183181765,0.15106201,-47.859190000000005,41.833496000000004,-123.428345,9.584421978855818,0.29564426282849965,138.83479320572758,19.387174603174586,28.941206349206293
41300,41300.0,3.5803299,-9.2409975,0.315841665,0.237640385,0.199165345,0.30872345,-47.1180725,42.82493605,-125.092619,9.916382082638224,0.4382486857118515,140.36486253252943,19.334492063492046,28.92712698412693
41400,41400.0,3.81256865,-8.87767,1.2112732,0.198226925,0.062812805,0.32097626,-45.8723442,43.45596275,-125.98945900000001,9.738775944895202,0.3835015829524322,140.9470559857365,19.281809523809507,28.91304761904757
41500,41500.0,3.36904145,-9.3936235,0.587585445,0.13591003499999998,0.195968625,0.19633484,-45.0749206,43.98078975,-126.862949,9.997469214069925,0.3095208051513743,141.6342909056813,19.229126984126967,28.898968253968206
41600,41600.0,3.85566715,-9.1775435,1.714653,-0.085128784,0.19116974,0.16225433,-44.3814851,44.53140275,-126.9683836,10.106004874144762,0.2658762663456605,141.6818458314576,19.176444444444424,28.88488888888884
41700,41700.0,3.648271155,-11.182990199999999,-0.6593170014999999,-0.228623202,-0.3341018715,-0.057405091115,-44.494339619047615,44.80067638095239,-126.11853971428572,11.788466985877855,0.4153315260306867,141.04164013289665,19.123761904761892,28.870809523809477
41800,41800.0,3.09389732,-9.514291525,-0.42252884225,-1.598130845,-0.498959342,-0.734273505,-46.316833200000005,43.974304,-121.29058799999999,10.030822885770851,1.8282069899987716,137.0788019803932,19.07107936507935,28.856730158730112
41900,41900.0,2.538321675,-11.0747741,-0.3963813885,-1.28286974,-0.6019172575,-0.631587985,-48.957824,41.723937,-114.20624,11.369832029155276,1.5515881449094375,131.07612194202073,19.01839682539681,28.842650793650748
42000,42000.0,2.6364785,-8.186463400000001,-0.5759353675,-0.2934997575,0.0037391660000000025,-0.7177673330000001,-51.149598,39.3920888,-110.737916,8.621378225860408,0.7812371116360675,128.18340069282596,18.96571428571427,28.828571428571376
42100,42100.0,2.17081451,-8.07824965,-2.048552685,0.3175888055,-0.47121199799999997,-0.2886261005,-52.8210456,37.9614252,-110.782472,8.614946499563183,0.6453877268074656,128.46756252611348,18.91303174603173,28.81449206349201
42200,42200.0,3.87613603,-7.9572775500000015,-2.81709063,-0.0604148885,-0.005424498799999997,0.014014435099999995,-52.737427000000004,37.919616999999995,-109.954834,9.291653007060832,0.09051480675017096,127.70747464410442,18.86034920634919,28.800412698412647
42300,42300.0,5.528860400000001,-8.145047,-2.86222232,0.401907346,-0.163455202,0.126135252,-52.450559999999996,38.67798,-110.29968000000001,10.254895589906985,0.4525650388698926,128.11349183164276,18.80766666666665,28.78633333333329
42400,42400.0,3.3376862000000003,-7.72031238,-2.6070037999999998,0.487979124,0.009124754800000004,-0.050488279560000016,-53.0645764,39.0066532,-111.213378,8.851756114660127,0.4980383955551214,129.25087641859548,18.754984126984112,28.772253968253924
42500,42500.0,6.1120879,-11.758142,-4.7866822,0.342892456,-0.54502868,0.28826905,-52.184754600000005,40.3549196,-112.96112,14.097097484601123,0.7126912802411296,130.81289956867826,18.702301587301573,28.758174603174556
42600,42600.0,1.4778656000000001,-8.139300599999999,0.7764801240000001,0.457296768,0.251568604,0.291043092,-52.4060068,40.5487064,-113.91693400000001,8.3486800832047,0.6212614675050318,131.78648414090287,18.649619047619034,28.74409523809519
42700,42700.0,1.90954288,-9.539432199999998,0.0812103274,0.45196838799999994,0.620581056,0.335137948,-51.59149280000001,41.9207754,-116.9070432,9.730086261207918,0.8401664848688231,134.4854055804106,18.59693650793649,28.730015873015827
42800,42800.0,4.2886596,-9.571038900000001,1.1451935,0.467520144,0.231549072,0.11335143900000005,-51.1004636,42.835082799999995,-118.66424599999999,10.55505560743794,0.5421342386032444,136.11518328155185,18.544253968253955,28.715936507936462
42900,42900.0,2.904087075,-9.0209646,0.4533897372499999,0.26586914500000003,0.235057065,-0.077810667,-51.5808104,43.0541994,-120.4101548,9.492364544450007,0.3726069876699705,137.8871267581738,18.491571428571415,28.701857142857094
43000,43000.0,3.25364074,-8.99625165,0.8274795559999999,0.268162539,0.1982604975,0.1636276265,-51.862182399999995,42.854918,-122.086794,9.6037986874447,0.3718774213474897,139.3966422649087,18.43888888888888,28.68777777777773
43100,43100.0,3.2142607999999995,-9.072560375,0.302845009,0.2266151435,0.270215606,0.3081893905,-50.994873,43.575134000000006,-123.341978,9.631342913412867,0.4692000449539443,140.40126925093742,18.386206349206336,28.673698412698368
43200,43200.0,4.228443115,-8.92549765,1.34995503,0.1375122,0.168159484,0.3288085925,-49.972229399999996,44.407654,-124.603272,9.968725075330203,0.3947226218446656,141.40461126744052,18.3335238095238,28.659619047619003
43300,43300.0,3.085149385,-9.1995767,1.03559571,0.018572234950000002,0.347020725,0.120546721,-49.6627804,44.521485999999996,-125.06225800000001,9.758756433979443,0.368407753000769,141.73610410942732,18.280841269841254,28.64553968253964
43400,43400.0,4.00501015,-9.621250999999999,2.1589568850000003,-0.150965121,0.333432779,0.2310585005,-49.083252,44.937744,-125.7269288,10.643854742904182,0.4338154478287705,142.25271315747403,18.228158730158718,28.631460317460274
43500,43500.0,2.93671724,-11.73623115,-1.47873384,-0.25743789675,-0.23195114149999999,-0.08520965594999999,-49.4119264,44.8803704,-125.109558,12.210525874043768,0.3711238442559765,141.80351983685713,18.17547619047618,28.61738095238091
43600,43600.0,1.8097061,-8.9386065,-0.227641297,-1.72596432,-0.53256532,-0.7199996879999999,-51.46372,43.34668610526316,-119.24976684210527,9.142531993567903,1.9465602208859347,136.9241627703507,18.12279365079364,28.603301587301544
43700,43700.0,2.27644956,-11.6229874,-0.633218371,-1.23135531,-0.40409547,-0.6469284040000001,-53.6712645,40.16342075,-112.6895925,11.86136585680857,1.449390408835303,131.12149106111832,18.070111111111103,28.58922222222218
43800,43800.0,2.25634458,-7.73276673,-0.13247985880000002,-0.19347686600000003,-0.141401674,-0.71829683,-55.85975749999999,37.371445,-110.08797,8.057900536763965,0.7643257663174415,128.98315380862067,18.01742857142856,28.57514285714281
43900,43900.0,1.44207304,-7.55762333,-1.28349306,0.362071229,-0.680955502,-0.17000579899999999,-56.97097875,36.09542875,-109.22851499999999,7.806862371198907,0.7947629622695986,128.3722798509045,17.96474603174602,28.56106349206345
44000,44000.0,4.46618652,-8.519623199999998,-3.44078361,0.369952391,0.369714354,0.0577453604,-56.71043375,36.40632625,-110.3191375,10.216406058624855,0.5361642607085473,129.2742317127302,17.912063492063478,28.54698412698409
44100,44100.0,6.76725313,-9.0690886,-3.33998873,0.0348175061,-0.310147094,-0.29155274,-57.46955875,36.08284,-111.086275,11.799752630686175,0.4308496945878,130.17264406130678,17.859380952380942,28.532904761904717
44200,44200.0,0.9255279409999999,-8.074651919999999,-0.8295440700000001,0.598556518,0.22153015,0.2624938959,-58.1027975,35.3553775,-111.649325,8.174106035659241,0.7016797450651422,130.7346720091324,17.806698412698402,28.51882539682536
44300,44300.0,6.266981436842105,-12.546468368421055,-4.803722936842106,0.22082358736842106,0.5045535605263158,0.27721284842105265,-57.0087435,37.302399,-114.5175925,14.827943963002644,0.6427424420507438,133.2506920263506,17.754015873015863,28.504746031745988
44400,44400.0,0.7054314884210526,-6.69926454736842,1.8999216315789476,0.2599575621052632,0.5393130631578947,0.3780164305263158,-57.32231125,37.60261575,-117.70401,7.042568203450081,0.7232682536959066,136.2133414270461,17.701333333333327,28.490666666666627
44500,44500.0,3.768095355,-9.9184859,0.07809067199999997,0.513867211,0.017430114100000005,0.2029426555,-56.248092500000006,39.264298,-120.08743500000001,10.619263982228897,0.5611293116116247,138.2988773511612,17.648650793650784,28.476587301587266
44600,44600.0,3.4465157714285715,-9.007413095238096,-0.13119434666666666,0.4271073085714285,0.06478082733333332,-0.025825863904761902,-56.451417500000005,38.870621,-122.02529750000001,9.64604053202102,0.4338862085060029,139.9567669696022,17.595968253968245,28.462507936507894
44700,44700.0,3.1102295,-9.1221219,0.55070802,0.299215702,0.071539306,0.23969726600000002,-56.28623975,38.56697125,-123.18039,9.654501949271182,0.39006856713973465,140.8154681675623,17.543285714285705,28.448428571428533
44800,44800.0,3.25077818,-9.1767124,0.328521732,0.336706544,0.210034184,0.52625426,-54.9880978,39.80041480000001,-125.399782,9.747219052720222,0.6592480908221436,142.5934869236215,17.490603174603166,28.43434920634917
44900,44900.0,4.13183898,-9.2296172,1.26394042,0.23188477,0.128854368,0.45871582,-53.244629,40.593872,-127.12921000000001,10.192904987509083,0.5319859421270274,143.68279590238325,17.437920634920626,28.420269841269803
45000,45000.0,3.05923462,-9.255713,0.7932403800000001,0.0196929931872,0.474426272,0.19132996,-52.35138,40.60440075,-128.8475,9.78043208171575,0.5135677352429966,144.88307365557682,17.385238095238087,28.406190476190442
45100,45100.0,4.0116486,-11.534753199999999,1.43704836,-0.14137878599999998,0.02105102519999999,0.0223815924,-51.64947525,40.86379975,-129.55208249999998,12.300643250979281,0.16626458827917354,145.33183674298832,17.332555555555547,28.392111111111074
45200,45200.0,2.33834834,-9.7326478,-1.29498598,-1.29740296,-0.320477292,-0.5298492539999999,-52.92511,40.22102375,-127.06680125,10.097522947024192,1.437885706667974,143.40463497349242,17.279873015873008,28.37803174603171
45300,45300.0,0.6415771400000001,-11.315213,0.8301178100000001,-1.6932556,-0.440426638,-0.7420593120000001,-54.873276000000004,38.04855425,-120.21980375,11.369264198644045,1.9015712240632336,137.51982158416857,17.227190476190472,28.363952380952345
45400,45400.0,2.82508852,-8.863544000000001,-1.1838867,-0.57323608,-0.19882507600000002,-0.77869872,-56.47773775,35.93750025,-117.05436875,9.379237837712818,0.9923488002441812,134.84457377517643,17.17450793650793,28.34987301587298
45500,45500.0,1.93060608,-7.58072812,-1.1992096,0.30176698,-0.542254634,-0.600802608,-57.925416000000006,33.81118825,-116.323853,7.91741317392554,0.8647062484932607,134.27523964212938,17.12182539682539,28.335793650793608
45600,45600.0,4.43194943,-7.419719095,-3.04010846,0.131433104,-0.2332321175,-0.23189773449999998,-58.9187635,32.916641500000004,-115.95459,9.16408975975222,0.3583363205286775,134.16559251901666,17.06914285714285,28.32171428571425
45700,45700.0,4.716622900000001,-8.192695859999999,-2.96613316,0.644685364,-0.391630556,0.312445068,-58.635329500000005,33.4644315,-117.051695,9.912788430890092,0.8172479563751841,135.12620764698607,17.01646031746031,28.30763492063489
45800,45800.0,3.66879734,-7.21261904,-3.67445525,0.190451046,-0.47780609799999996,-0.323617547,-58.2950595,33.393097,-117.41943375,8.89270671595538,0.6114816773910635,135.28027973258344,16.963777777777768,28.29355555555552
45900,45900.0,5.46109463,-12.73856085,-4.8151733100000005,0.38677827,-0.17655181479999998,0.580581668,-57.53960852631578,35.15625010526316,-120.02997242105265,14.710669560936674,0.7220720301921592,137.6735333012613,16.911095238095232,28.27947619047616
46000,46000.0,-0.45078659299999996,-7.540573075,1.77282871,0.276263429,0.4395446814999999,0.14691543825,-57.32078525,35.2630615,-124.18975875,7.766349364461084,0.54645766511199,141.25261661549638,16.858412698412693,28.26539682539679
46100,46100.0,3.880203975,-10.21184785,0.07097320525,0.5719718825000001,0.22227630155,0.2963623065,-56.31294225,36.35444675,-125.99945,10.925525268144625,0.6836582529464015,142.7192551462178,16.805730158730153,28.25131746031743
46200,46200.0,3.411122235,-9.41935545,-0.09848251449999999,0.512003353,0.2025169372,0.0421356205,-55.667877000000004,36.2674715,-128.5690325,10.020587674810916,0.5540162353233791,144.7212609172127,16.753047619047617,28.237238095238066
46300,46300.0,2.919174215,-9.050057275,1.05367435,0.167655948,0.267665865,0.167410277,-55.2490238,36.376647999999996,-130.35339399999998,9.568208745691793,0.3582949248389083,146.17703330323027,16.700365079365074,28.223158730158698
46400,46400.0,2.8387298999999997,-8.890839,0.83418274,0.21313477,0.33018494,0.42483519999999997,-54.17983990000001,36.89071679999999,-132.311551,9.370232996718329,0.5787343707995893,147.6577011289826,16.647682539682535,28.209079365079326
46500,46500.0,3.9292907999999995,-8.967452999999999,1.6518096999999998,0.22912598,0.15441895,0.3491974,-52.5260931,37.448271999999996,-134.494932,9.928897964184534,0.44528951368387615,149.16528955776784,16.594999999999995,28.19499999999997
46600,46600.0,2.6340332,-9.611496,0.5145569000000001,0.027786255,0.31846620000000003,0.21923828,-51.324921100000005,37.90084829999999,-135.722198,9.97916605032985,0.38763155176884573,149.9708000844016,16.542317460317456,28.180920634920607
46700,46700.0,5.2556763,-10.229202,1.4064026,-0.24598694,0.29823303,0.25653076,-49.9484255,38.6552424,-136.73751399999998,11.586055204446096,0.463961793318935,150.61958942574563,16.489634920634913,28.166841269841235
46800,46800.0,3.3175660000000002,-10.502136,-1.6785278000000001,-1.3464049999999999,-1.1217651000000002,-0.79914856,-51.392669399999996,38.2324222,-133.494566,11.140850968495398,1.9260845735722727,148.06752402694818,16.436952380952373,28.152761904761878
46900,46900.0,0.47924805,-10.71402,0.7096863,-1.7149811000000001,-0.06715393,-0.6382904,-53.8700869,37.4435426,-127.18246200000002,10.748188586838086,1.831142937731464,143.1065970219393,16.384269841269838,28.138682539682513
47000,47000.0,2.341812155,-9.0305492,-0.4820274315,-0.7120445224999999,-0.2746604835,-0.812887562,-55.265655,36.2411501,-123.25378300000001,9.341727134821376,1.1157112022105695,139.85458203276946,16.331587301587298,28.12460317460314
47100,47100.0,1.57519758,-7.13259947,-1.1568397700000002,0.2767944375,-0.37331085299999994,-0.449005885,-57.0260621,34.578705799999994,-121.98211599999999,7.39644952157667,0.6467432449694381,139.02273380224443,16.27890476190476,28.110523809523784
47200,47200.0,4.20270175,-8.397758300000001,-3.24559476,0.07455444345,-0.2645950304,-0.0408370967,-57.05085749999999,34.30335995,-121.608354,9.935978451910046,0.27958976072699426,138.63664763877796,16.22622222222222,28.09644444444441
47300,47300.0,4.23646235,-8.131521099999999,-2.40990751,0.37404708600000003,0.009751892199999999,0.024934386800000003,-57.0812992,34.43031275,-122.45513975,9.48048352046769,0.37581588021618695,139.42392507886532,16.17353968253968,28.082365079365047
47400,47400.0,4.459250675,-7.92550285,-4.2718711800000015,0.3052871745,-0.2999153145,-0.2679031415,-57.0555875,33.9997094,-123.61107050000001,10.049371924556027,0.5104107825727927,140.32472036083826,16.12085714285714,28.068285714285693
47500,47500.0,3.114297455,-10.13977515,-2.262233015,0.8284896865000001,0.07026595975,0.7118148799999999,-55.82862815,34.60571245,-125.20912450000002,10.852980511033977,1.0948595921029458,141.39239787316788,16.0681746031746,28.054206349206318
47600,47600.0,1.1751220999999998,-7.661538579999998,1.95778654,-0.083325198,0.95027923,-0.0108551023,-54.67353815,35.360870899999995,-127.389601,8.028852614121758,0.9583498585974594,143.06555730861064,16.01549206349206,28.04012698412696
47700,47700.0,3.34307254,-9.719116199999998,0.297288509,0.427264405,0.8136047599999999,0.5579910260000001,-52.5173953,36.687393,-130.467067,10.288054263238068,1.0763142870112814,145.34716990169585,15.962809523809524,28.02604761904759
47800,47800.0,4.23347168,-9.656261099999998,1.63851926,0.51130369,0.24795684899999998,0.226808165,-50.9764845,37.28019695,-132.70408500000002,10.670172676869106,0.6151033410721138,146.9654244444915,15.910126984126984,28.01196825396823
47900,47900.0,2.43698581,-8.7376071,0.7867843400000001,0.12919464,0.509686272,-0.144754028,-50.630645799999996,36.58874555,-135.3467545,9.1130652256399,0.5457484309749544,149.0671345457381,15.857444444444445,27.997888888888866
48000,48000.0,3.46230773,-9.3911148,-0.0537078865,0.241162106,0.46015777399999996,0.25770263400000004,-49.7193905,36.7243961,-136.3419345,10.00940032887218,0.5817154820919682,149.69932120329804,15.804761904761904,27.983809523809494
48100,48100.0,3.67239537,-9.1703672,0.395928953,0.264808643,0.229304505,0.422494504,-47.71553015,36.910552100000004,-138.31993,9.887635127691084,0.5490244088579526,150.9026381601589,15.752079365079364,27.96973015873013
48200,48200.0,3.72972715,-9.30168725,0.93761596,0.22614441,-0.0236923222,0.30510712,-46.1898813,37.37472565,-139.1664125,10.065837015174381,0.3807696689545835,151.3199268383282,15.699396825396823,27.95565079365077
48300,48300.0,2.7428390250000003,-9.001989,0.49480896049999995,0.0041931150500000005,0.4255256725,0.10690994324999999,-45.0923905,37.128525,-139.6324185,9.425114855276576,0.4411560769740265,151.3575025330012,15.646714285714285,27.941571428571404
48400,48400.0,4.8287858,-11.79476425,1.3387031395,-0.1289138794,-0.30294265000000004,0.0155120853,-44.18190015,37.87795995,-140.0838425,12.828853825157573,0.33086926077816514,151.69146111865152,15.594031746031744,27.92749206349204
48500,48500.0,1.6213950700000002,-8.950692425,-0.9377724059999999,-1.513969435,-0.8249794009999999,-0.4547027625,-45.44616729999999,38.718718599999995,-135.742108,9.148750503798533,1.7831355248218026,148.29238631576308,15.541349206349206,27.913412698412674
48600,48600.0,1.656832085,-10.19622435,0.01567001400000001,-1.464595045,-0.20942153800000002,-0.6913436895,-47.49267645,39.327849,-129.427189,10.332111276378622,1.6331280372247332,143.36566757643595,15.488666666666667,27.899333333333306
48700,48700.0,2.90457228,-9.55116795,-0.309761048,-0.573127009,-0.0914382915,-0.80064929,-49.81048645,38.37928775,-125.8266445,9.989263513927256,0.9927632502015818,140.66445026623137,15.435984126984126,27.885253968253945
48800,48800.0,1.975446355,-7.12069168,-0.48184661549999996,0.28232650750000005,-0.526341255,-0.6829338045000001,-51.97586055,36.272049200000005,-125.03570790000002,7.418461627900514,0.9107937982222902,140.18251529036286,15.383301587301588,27.871174603174577
48900,48900.0,4.1830774,-8.1988029,-3.58909914,0.04743881255,-0.499917619,0.0498596195,-52.7963257,35.89828445,-123.9423365,9.881060194405752,0.5046331334434855,139.41990530494866,15.330619047619047,27.857095238095216
49000,49000.0,3.6925049,-7.94178472,-2.3230499,0.5205810559999999,-0.00025329580000000093,0.17854308800000002,-52.589657421052635,36.06366657894737,-124.43028631578949,9.06508532795096,0.5524292166323193,139.81834668592523,15.27793650793651,27.84301587301585
49100,49100.0,4.53789978,-7.862771479999998,-3.69516296,0.16222534,-0.32004394199999997,-0.24415588600000002,-52.22931,35.995483,-125.39673,9.811693759674592,0.4368281529468518,140.52727676210156,15.22525396825397,27.828936507936486
49200,49200.0,3.75451356,-10.9431518,-2.1674255000000002,0.7536621,0.32422486399999995,0.7081970200000001,-51.636047399999995,36.2472536,-127.23876940000001,11.801955087910178,1.0902904576961068,142.02095307021455,15.172571428571429,27.81485714285712
49300,49300.0,2.166442888,-7.3243196,1.2840576000000001,0.026934814,0.95422364,0.050497435599999994,-50.810852399999995,36.6864016,-129.28314400000002,7.822225266462997,0.9604507240734762,143.67262078508043,15.119888888888893,27.800777777777764
49400,49400.0,3.5222809,-10.647226199999999,-0.21137084679999998,0.431521604,0.473150636,0.45444946,-48.955688200000004,37.6321414,-131.593016,11.2180619267105,0.7866860480215173,145.3601701515808,15.067206349206351,27.786698412698392
49500,49500.0,2.75523375,-9.566608250000002,1.054744725,0.6035614,-0.017883301249999997,0.1981964075,-48.41766320000001,37.3532104,-133.484802,10.011470968019578,0.6392584836747361,146.82554829989382,15.014523809523812,27.77261904761903
49600,49600.0,2.65408325,-9.000671,0.5720176625,0.2245903,0.2929039025,-0.119247435,-48.090515,36.44989,-135.196844,9.409052983906653,0.38802029179954345,148.05228856777606,14.961841269841273,27.758539682539663
49700,49700.0,3.51898575,-9.205978375,0.540889725,0.31460953,0.211418155,0.27809906,-47.531126799999996,36.6403192,-136.23809599999998,9.871912578052923,0.4708995799903527,148.87109658262366,14.909158730158731,27.744460317460298
49800,49800.0,3.26011275,-9.10781075,0.15302658,0.2048835775,0.3437652575,0.27835846000000003,-46.114808,36.753234,-137.878422,9.67580565602365,0.4878189221952271,149.95948008332337,14.856476190476195,27.73038095238093
49900,49900.0,3.397472375,-9.430736499999998,1.40221025,0.1473655725,0.141368865,0.25572205,-45.2206422,36.8634032,-138.41797,10.122367634959613,0.33187345448423683,150.2110926254641,14.803793650793654,27.71630158730157
50000,50000.0,2.812397025,-9.038685000000001,0.4125061025,-0.0433197025,0.5706711,0.106056215,-44.037171,36.9757072,-139.668272,9.475543485211473,0.5824659651542015,151.0421623572502,14.751111111111117,27.702222222222204
50100,50100.0,4.60685345,-9.861694,1.7912636000000002,-0.3170967075,0.5560302699999999,0.2003326425,-42.3004154,37.475281,-139.508668,11.034564024472491,0.6747161493187872,150.52054869024388,14.698428571428574,27.68814285714284
50200,50200.0,3.80837701,-11.5806121,-1.9963653,-0.5684402479999999,-0.8210464679999999,-0.511958322,-43.3108516,37.6287848,-138.397832,12.363728683615177,1.134223760648417,149.81964778587204,14.645746031746034,27.674063492063475
50300,50300.0,-0.9145416479999999,-11.2897144,0.10730438399999996,-1.91727596,-0.496670534,-0.78679044,-46.439514200000005,37.9226684,-131.99401799999998,11.337054242344351,2.1388741030223333,144.97435382241952,14.593063492063493,27.65998412698411
50400,50400.0,3.75055994,-10.1996293,-0.84175566,-1.035774228,-0.412509158,-0.53709717,-48.0493164,37.437439000000005,-127.118835,10.900812931394892,1.2432453998181798,140.959911648644,14.540380952380955,27.645904761904745
50500,50500.0,2.20881651,-6.7793932,-0.75066378,0.03002319425,-0.7002426190000001,-0.418748468,-49.7650144,36.0537728,-124.643248,7.187289774983765,0.8184082482750203,138.96909321926208,14.48769841269842,27.63182539682538
50600,50600.0,3.3090697999999996,-8.6135974,-3.25523074,0.27205200100000004,-0.461515809,-0.20420532600000002,-50.7351684,35.28228799999999,-124.56421200000001,9.790419901181561,0.5781678341217079,139.05090906307208,14.435015873015876,27.617746031746016
50700,50700.0,3.62785489,-7.1214049,-1.4677200499999998,0.29111633000000003,0.09199981899999997,0.035379027599999995,-51.203918,34.814147999999996,-125.017394,8.126665860565291,0.3321591538509183,139.51062932277014,14.38233333333334,27.60366666666665
50800,50800.0,6.103914736842105,-10.157689789473684,-4.810901768421052,0.6338589342105263,-0.43921621631578944,-0.09310270463157894,-51.197509200000006,34.7301484,-126.42753700000002,12.798344414109565,0.7899320934252984,140.75267473196104,14.329650793650801,27.58958730158729
50900,50900.0,0.10598297299999998,-9.038447775,0.6971786182499999,0.5814003000000001,0.18968124600000003,0.495090476,-51.22032085,34.3696595,-127.39959750000001,9.100085070052002,0.7926351053213144,141.54713700018084,14.27696825396826,27.575507936507922
51000,51000.0,3.2358154150000003,-8.353642840000001,1.4040611500000002,0.1923721305,0.988687904,-0.032800292050000006,-50.1239167368421,34.86111289473684,-128.6238810526316,9.2431991551923,1.008696571386594,142.3792127340694,14.224285714285722,27.561428571428557
51100,51100.0,3.63671801,-9.806978025,0.14064788824999996,0.373726661,0.454244235,0.519803621,-48.7499237,35.36705,-130.4869085,10.468517947649893,0.7869859792457231,143.71588285944574,14.17160317460318,27.547349206349192
51200,51200.0,3.06402814,-9.86521815,0.9449752785,0.59269026,-0.3490745555,0.3157562245,-47.93640185,35.620956299999996,-132.215422,10.378168723640645,0.7603025435067012,145.07821434373432,14.118920634920642,27.533269841269828
51300,51300.0,3.00094298,-9.3282037,-0.4421112125,0.407122036,0.0219024645,-0.0455291737,-47.776794,35.023117299999996,-133.219985,9.810714475299296,0.4252127220868856,145.79728156596477,14.066238095238102,27.519190476190467
51400,51400.0,2.91282963,-9.16191965,1.032715605,0.20648727100000003,0.16928558850000003,0.1401954661,-47.6323685,34.9330904,-134.5140085,9.67333464757412,0.3037893811353777,146.91224195340246,14.013555555555566,27.505111111111102
51500,51500.0,2.47648616,-9.3993712,0.444891364,0.29665832400000003,0.178500372,0.27847290199999997,-46.628418700000005,35.068893700000004,-135.591814,9.733353966895711,0.4448299360078646,147.61162706925006,13.960873015873025,27.491031746031734
51600,51600.0,3.59721988,-9.0124666,1.4444702,0.089993288,0.274368286,0.34132080200000003,-45.46470625,35.4267112,-136.5604405,9.811273700374468,0.4474458402026075,148.22578318363918,13.908190476190484,27.476952380952373
51700,51700.0,2.7709778,-9.5032804,0.51552126,0.0286376952,0.35085448799999996,0.12890015000000002,-44.5838167,35.814590700000004,-137.5687395,9.912708527889382,0.3764344267711193,148.9817549074857,13.855507936507944,27.462873015873004
51800,51800.0,4.00327456,-9.8231416,1.54574282,-0.14137878199999998,0.561566156,0.25524292,-42.892532,36.03736855,-137.87140499999998,10.720181417070279,0.633942183024963,148.81872738571198,13.802825396825405,27.448793650793643
51900,51900.0,3.60919188,-11.20412,-1.07950441,-0.36359252,-0.59041137,-0.23136291399999998,-42.8575135,36.845397999999996,-137.69203249999998,11.845285490439437,0.7336593353041618,148.8407066097313,13.750142857142865,27.434714285714275
52000,52000.0,0.7136413580000001,-9.758975,-0.26954346360000003,-1.73118284,-0.946630858,-0.7821075359999999,-45.61538705,37.3016368,-131.9419095,9.79666523826689,2.122753611334482,144.50321223320387,13.697460317460324,27.42063492063491
52100,52100.0,1.88775328,-11.287677,-0.5702514639999999,-1.20472108,-0.09718933,-0.72544251,-48.09028605,37.00653085,-126.18225100000001,11.462307481493658,1.4107983608477257,140.01547285349378,13.644777777777787,27.40655555555555
52200,52200.0,1.88320387,-7.0023583700000005,-0.44743804369999995,-0.051688386700000005,-0.3050766005,-0.682075495,-50.5586246,35.412749700000006,-124.1896037,7.279188010196943,0.7753189449961523,138.68422568188402,13.592095238095247,27.39247619047618
52300,52300.0,2.258798945,-8.39817125,-2.442404145,-0.0443328846,-0.5632515,-0.1230873075,-51.511687,34.789886700000004,-122.46368570000001,9.038731914476203,0.5790675181280838,137.33603225142306,13.539412698412708,27.378396825396813
52400,52400.0,3.73338931,-7.35334555,-2.144148235,0.017503356124999998,0.0734588615,-0.060493468649999986,-51.8053437,34.66522195,-122.66822675,8.522743144894838,0.10652376680706482,137.59717738424726,13.486730158730168,27.364317460317448
52500,52500.0,4.968077715,-8.42403375,-2.85000912,0.6534744229999999,-0.0440406801,0.12597808875,-51.68067875,35.197906,-123.28956725,10.187988968812457,0.6676718389510437,138.23954376339896,13.434047619047627,27.35023809523809
52600,52600.0,3.44309155,-8.185744549999999,-2.86144715,0.316522214,-0.1386833166,0.0365448,-51.82133668421052,35.22451331578947,-124.12342263157896,9.356382847111153,0.35906188675077816,139.0427220049244,13.38136507936509,27.33615873015872
52700,52700.0,5.754692065,-12.60843825,-5.01742315,0.3945602435,-0.1455635082,0.34584655950000004,-50.7211580952381,36.038933666666665,-125.04875714285713,14.755111811227007,0.5446463999156077,139.67338662123592,13.32868253968255,27.32207936507936
52800,52800.0,0.09125720315789476,-7.959558400000001,0.801796382631579,0.38980584736842105,0.453257497368421,0.36686625263157896,-50.286865500000005,36.27472,-126.89667,8.089970908249676,0.715808888348149,141.23538387817052,13.276000000000009,27.307999999999996
52900,52900.0,3.9191132000000004,-10.697861,1.00716402,0.54337312,-0.20776367500000004,0.27463531500000005,-49.326325,36.894226,-128.93371499999998,11.469377456765974,0.6949048004594894,142.89243726942863,13.223317460317473,27.29392063492063
53000,53000.0,2.1940918,-9.540863,0.06864170000000014,0.668540955,0.003684997499999999,-0.035888670800000015,-48.846435,36.850738,-130.462645,9.850953310898152,0.6706879933561238,144.0989876020661,13.170634920634933,27.279841269841267
53100,53100.0,3.0763549,-8.672965999999999,1.150215135,0.098625185,0.403694155,0.1398773175,-48.510742,36.618041999999996,-131.82297,9.27773009993451,0.4433589156435244,145.16017900233015,13.117952380952392,27.265761904761895
53200,53200.0,2.58668064,-9.12475605,0.6413932619999999,0.33452453600000004,0.2663818335,0.3304489175,-47.640991,36.6661075,-133.36487,9.507888946856708,0.5411622507161741,146.28838021415467,13.065269841269851,27.25168253968253
53300,53300.0,3.32984468,-8.825420699999999,1.317816915,0.1270118733,0.380844876,0.41135712,-46.2860115,37.562560999999995,-134.46274,9.532848130337168,0.5767838685287381,147.08375945573312,13.012587301587311,27.237603174603173
53400,53400.0,2.86972886,-9.535063825,0.775046515,0.1106132493,0.37562484700000004,0.153460694,-45.1683045,37.702179,-135.376735,9.989291877823176,0.4221559165725889,147.6095335316231,12.959904761904776,27.223523809523808
53500,53500.0,4.60344002,-10.51465405,1.51007079,-0.2647880555,0.49648285049999996,0.08789291275000001,-44.243621999999995,37.5099185,-136.038975,11.577380582332404,0.5716832343746721,147.88882904537198,12.907222222222234,27.209444444444443
53600,53600.0,3.9945915,-10.77633475,-2.22063827,-1.03737564,-0.6888396999999999,-0.36175232,-44.673157,37.976074,-133.80356,11.720391620068431,1.300063484401007,146.08700664153642,12.854539682539695,27.19536507936507
53700,53700.0,0.1791885375,-10.2003463,0.4590095475,-1.65847626,-0.6544899000000001,-0.68240202,-47.218323,37.6770025,-126.86157,10.21226042124338,1.915229889234466,140.51150422420548,12.801857142857154,27.18128571428571
53800,53800.0,2.722550275,-9.55176145,-0.4255905145,-0.87039259,0.04661941750000001,-0.574907665,-48.8533015,36.63025,-123.59924199999999,9.95275136458016,1.056718765079704,137.85946402401458,12.749174603174614,27.167206349206342
53900,53900.0,2.39442596,-7.90556402,-0.9893623375,0.14299545225,-0.715206915,-0.499227144,-50.44937,35.1203915,-122.559357,8.338992248491127,0.8891354992558661,137.11098403693873,12.696492063492075,27.15312698412698
54000,54000.0,3.2749135842105264,-8.391213631578948,-3.0177684421052637,0.16133920684210526,-0.446833547368421,-0.2377584357894737,-51.2260435,34.555055,-122.20459,9.502832857974507,0.5322368011072989,136.93841490805016,12.643809523809535,27.139047619047613
54100,54100.0,2.9932861263157893,-7.623430705263157,-2.013526536842105,0.3828502431578947,-0.10842413389473686,0.14624344536842107,-51.325226,34.510803,-122.59902949999999,8.434524778355115,0.43040130621365214,137.31671811162025,12.591126984126998,27.124968253968248
54200,54200.0,6.33989195,-9.87150755,-4.596820599999999,0.418630985,-0.442076115,-0.12467956225,-50.8872985,34.4154355,-123.088835,12.601566573746656,0.627147079536047,137.56754740910236,12.538444444444456,27.110888888888887
54300,54300.0,0.9628669719999998,-11.458086325,-0.4725166325,0.8174118025,0.012100982454999992,0.718576047,-50.52024473684211,34.66082052631579,-124.62053894736843,11.51508603944374,1.0899829128279122,138.86685601743736,12.48576190476192,27.09680952380952
54400,54400.0,0.7222595,-6.307494999999999,1.7164458999999999,0.11193848,1.1397858,-0.07476807,-49.737549,35.178375,-126.0116575,6.576651008529497,1.1477073483592737,139.96529247063177,12.433079365079381,27.082730158730158
54500,54500.0,4.189418835,-10.42599925,0.5630973815,0.429812619,0.48608550799999994,0.5260894755,-48.337555,35.8901985,-128.063202,11.25050506116474,0.8362810541749747,141.50908782454644,12.38039682539684,27.0686507936508
54600,54600.0,3.07108457,-9.85115295,0.5603477474999999,0.568626383,-0.27306746805,0.3608146805,-47.131347,36.222839,-130.10101500000002,10.336890709308657,0.7305705990820907,143.0378250597947,12.3277142857143,27.05457142857143
54700,54700.0,2.04062651,-8.7872879,0.02781372,0.20760345300000002,0.30206146300000003,-0.253308103,-47.08786,35.4721075,-131.839755,9.025872789773963,0.44662201072344176,144.42048081154746,12.27503174603176,27.040492063492064
54800,54800.0,3.0636658,-9.3451465,0.724174496,0.28078460899999996,0.22355957199999998,0.198466495,-46.656034999999996,35.6636045,-132.972715,9.861745211671755,0.4101643118092645,145.36315252027072,12.222349206349223,27.0264126984127
54900,54900.0,2.792523855,-9.227822499999998,0.11478347800000002,0.25175857300000004,0.28651503300000003,0.35020828000000004,-45.6398,35.947419000000004,-134.28573500000002,9.64264635618901,0.5178313351966038,146.31430760787487,12.169666666666682,27.01233333333333
55000,55000.0,3.81808317,-9.3956011,0.8196411134999999,0.0200576784,0.3746597285,0.267554477,-44.1802985,36.03744500000001,-135.129545,10.176729393110882,0.4622226167931042,146.66522872689632,12.116984126984146,26.99825396825397
55100,55100.0,3.61864091,-9.40265975,1.030563359,-0.1197006225,0.6019409250000001,0.181162262,-43.1137085,36.36779799999999,-136.20606,10.128587553966133,0.640588426471687,147.42302479110415,12.064301587301605,26.984174603174605
55200,55200.0,3.33929135,-11.83708495,-0.93674623,-0.34649125000000003,0.03776855400000001,-0.17986679300000002,-41.994476500000005,36.834717,-136.250305,12.337874941191163,0.3961939321276491,147.2566261474749,12.011619047619064,26.97009523809524
55300,55300.0,0.9608588257894736,-9.525937736842103,-0.6447424694736842,-1.7286144368421053,-0.5159092947368421,-0.7514359157894737,-43.928528,37.3031615,-132.534025,9.608516673094586,1.9545108866946053,144.52194031757136,11.958936507936526,26.956015873015875
55400,55400.0,2.38885496,-11.042038,-1.02228091,-1.27354734,-0.23695373399999997,-0.46167603,-45.655822,37.24289,-127.29721,11.348967364518051,1.3755492432936498,140.2717299274303,11.906253968253985,26.94193650793651
55500,55500.0,2.20618596,-8.044726400000002,-0.632260112,-0.2208465668,-0.364785772,-0.71350401,-47.495887,36.85237285714285,-124.50307028571429,8.36680397250801,0.8360464835927359,138.2570920377176,11.853571428571446,26.927857142857146
55600,55600.0,1.26023558,-7.651123200000001,-1.6301697,0.29516907,-0.416775506,-0.5445495459999999,-49.2881765,35.546111,-123.96011499999999,7.925011140172613,0.7482813812003879,138.05477160130528,11.800888888888904,26.91377777777778
55700,55700.0,3.2275482,-8.1366636,-2.95918582,0.0571868896,0.0734680176,-0.0242736814,-50.161209,34.9525455,-123.53706299999999,9.242300106353968,0.10297083461806897,137.8377952924121,11.748206349206367,26.899698412698413
55800,55800.0,4.88409422,-8.424923800000002,-3.11218568,0.55807188,-0.17687378,0.139556884,-49.61471565,34.89173905,-124.4377882,10.227815502002006,0.6025239255869896,138.4336190783527,11.695523809523827,26.885619047619052
55900,55900.0,3.93072194,-8.14888334,-3.1490478,0.280038454,-0.339862068,-0.08137512220000001,-49.6948995,35.11878995,-125.34179750000001,9.595697701994515,0.4538381916508524,139.33243941275788,11.642841269841288,26.87153968253969
56000,56000.0,5.03828752,-14.1638336,-4.919082700000001,0.49287717600000003,-0.231198122,0.591448976,-48.55262670000001,35.46752915,-127.640228,15.840766991238404,0.8064548471676225,141.0935107107035,11.590158730158748,26.857460317460323
56100,56100.0,-0.5487670975,-7.5456047,1.3531227,0.267730715,0.7901229875,0.4671821525,-47.30606175000001,35.753021649999994,-129.6143335,7.70835414475569,0.9695595888964078,142.53436763839287,11.537476190476207,26.84338095238096
56200,56200.0,3.61594775,-10.1289405,1.097846975,0.43019104,0.32486724525,0.3526649525,-45.0370035,36.81999195,-132.1468345,10.813133558907364,0.6739912285117107,144.38469034568334,11.48479365079367,26.829301587301593
56300,56300.0,2.954246525,-10.313595,0.7530784699999999,0.603034975,0.02898788525,0.06397628625,-44.2330936,36.49597120000001,-133.59161,10.759823209993751,0.6102134985210167,145.37968218023002,11.43211111111113,26.815222222222232
56400,56400.0,1.409687075,-8.878867999999999,0.50139236,0.040039062599999994,0.43565369,-0.1013984655,-44.159546,36.1962894,-134.607848,9.004299760574597,0.453249175971361,146.21735702916502,11.37942857142859,26.801142857142864
56500,56500.0,3.001834875,-9.21825025,1.1834411325,0.0975608825,0.40209198,0.242671965,-43.13988968421052,36.54640589473684,-136.00729157894736,9.769293028535756,0.4814277825154269,147.2913754516621,11.326746031746053,26.7870634920635
56600,56600.0,2.80970385,-8.9465065,0.7818107425,0.25388718,0.17492676,0.33162308,-41.8527226,36.3845822,-137.48839999999998,9.41001380698076,0.4528054847589653,148.25177324340083,11.274063492063513,26.772984126984127
56700,56700.0,2.8058127500000003,-9.35740675,0.721652985,0.137245175,0.1395072925,0.2783660875,-40.3729248,36.794433399999996,-137.988892,9.79574429674303,0.34359302115321977,148.40738419893017,11.221380952380972,26.75890476190477
56800,56800.0,3.47810059,-9.36597135,0.52162323,0.0224533086,0.494340514,0.26888733,-39.035644399999995,37.1145638,-139.344174,10.008037103080534,0.5645719843215757,149.3923501028531,11.168698412698431,26.744825396825405
56900,56900.0,4.12609104,-11.5395432,1.0324218479999998,-0.190695193,-0.214265444,0.08981475489999999,-37.433167600000004,37.689514200000005,-138.735656,12.313807723690234,0.314917452235502,148.5576173761375,11.116015873015893,26.73074603174604
57000,57000.0,2.62349245,-9.2974946,-1.011265571,-1.55828861,-0.5682540850000001,-0.76069489,-38.771972999999996,38.5949708,-136.10046400000002,9.744838630040594,1.8250793152330969,146.68424736194234,11.063333333333354,26.71666666666668
57100,57100.0,0.923609922,-11.478375400000001,0.084075927,-1.47051091,-0.23184204,-0.78359988,-41.7315674,40.0997924,-129.60266399999998,11.527140352797264,1.6826353748342815,141.93889406997363,11.010650793650816,26.70258730158731
57200,57200.0,2.16057588,-8.33383342,-0.51782835,-0.431129455,0.0213699341,-0.6790969720000001,-44.09820560000001,40.5538942,-126.160276,8.629464513203475,0.8083655912923089,139.66284402657092,10.957968253968275,26.688507936507946
57300,57300.0,0.8261612009999999,-7.28588861,-0.7267151000000001,0.518128966,-0.363084408,-0.111418151,-45.8297736,40.162658799999996,-125.492552,7.370715772407192,0.644607762641839,139.50555995873975,10.905285714285736,26.67442857142858
57400,57400.0,5.40675799,-9.24919705,-3.89203417,0.1491203315,-0.027529908500000002,-0.28841171200000004,-46.063843,39.900512400000004,-125.7354756,11.402478624564946,0.41032645376153787,139.72597185099877,10.852603174603194,26.660349206349217
57500,57500.0,4.351867715,-8.2699068,-2.191367315,0.103258516,-0.6010162295,-0.08138046225,-47.2027584,40.061951,-126.59820500000001,9.610951660460888,0.6163424802522984,140.9261521512174,10.799920634920657,26.646269841269852
57600,57600.0,1.923424485,-6.412542739999999,-1.720008835,0.70279082,0.106164551,-0.14529342925,-47.904968200000006,39.688721,-126.823734,6.950374683271159,0.7422373352470119,141.25992849969117,10.747238095238119,26.632190476190488
57700,57700.0,5.965799715,-16.021615750000002,-6.34896,0.4947959905,-0.34949951049999994,0.5769584555,-46.362914,41.0342408,-128.91021999999998,18.29724359527693,0.8829190516755676,143.00805770751973,10.694555555555578,26.618111111111126
57800,57800.0,-1.2932998654999999,-7.0151605,2.7541511475,0.512751025,0.2664840706,0.4082252535,-46.0183714,41.3195802,-129.91516,7.808873194464242,0.7388742207292475,143.88585624509673,10.641873015873038,26.60403174603176
57900,57900.0,3.295064505,-9.8038749,0.91235732,0.440472418,-0.02368927,0.281880952,-43.7927244,42.189636799999995,-132.490236,10.409488773893058,0.5451320527703925,145.77887012346486,10.5891904761905,26.589952380952397
58000,58000.0,2.92581632,-10.20794755,0.8613014410000001,0.62753144,0.13247680750000002,0.032074738249999984,-43.35266100000001,42.287597600000005,-133.94165,10.657622551440642,0.6451731146572125,146.99695955562237,10.536507936507961,26.575873015873032
58100,58100.0,1.87602236,-8.912625,1.13417664,0.1285553,0.42925414799999995,-0.047714233519999996,-43.412860789473676,41.755837105263154,-135.82418368421048,9.179092713365431,0.4525515779153741,148.58151521303296,10.48382539682542,26.56179365079366
58200,58200.0,2.21217348,-9.3237118,0.8289123359999999,0.148583988,0.456317142,0.167681886,-42.70408645,41.88934285,-136.91841000000002,9.619429459188227,0.508537271822483,149.4157946275004,10.43114285714288,26.547714285714303
58300,58300.0,3.06043396,-9.0311432,1.21630248,0.143899534,0.33679504200000004,0.25716857600000004,-41.43577695,42.13226355000001,-137.822719,9.613251113000516,0.4483352770861413,149.95740559317588,10.378460317460341,26.533634920634928
58400,58400.0,2.37928468,-9.430736999999999,1.09180602,0.083599852,0.290780632,0.247369382,-40.47042805,42.54951475,-139.1852565,9.78743811858427,0.3913413099441709,151.065754819877,10.325777777777803,26.519555555555574
58500,58500.0,2.71231384,-9.428344599999999,0.866265862,0.0375823972,0.5509124639999999,0.27762146,-38.755722399999996,43.26935,-139.3013775,9.849623640865827,0.6183703339548701,150.9278454908934,10.273095238095262,26.5054761904762
58600,58600.0,4.47827758,-10.3958406,1.57231136,-0.176959232,0.21727600239999997,0.331524658,-36.96395805,43.9403528,-139.3869045,11.428180616994617,0.4399107555037765,150.75128076736928,10.220412698412725,26.491396825396837
58700,58700.0,1.420346055,-11.032338699999999,-2.2066345000000003,-0.880514555,-0.352750402,-0.427164463,-37.3125453,44.70405645,-138.11828799999998,11.340310851716385,1.0425932049637745,149.89124424062754,10.167730158730183,26.47731746031748
58800,58800.0,0.40579833950000005,-11.61364655,0.04260254599999996,-1.640789815,-0.2738662725,-0.813263685,-40.7199089,46.0173806,-130.72479249999998,11.626178139456144,1.8532427131877411,144.44730991450962,10.115047619047644,26.463238095238108
58900,58900.0,2.27093956,-9.731504275,-0.9741019925,-0.853401187,-0.287979889,-0.6551841650000001,-43.55651870000001,45.73967015,-124.94705325,10.053229312579257,1.115349714395052,140.00437248676528,10.062365079365103,26.44915873015875
59000,59000.0,1.82946011,-7.49891131,-0.8355346830000001,0.034493255000000014,-0.5517951975000001,-0.62338486,-46.5281682,44.6335594,-122.527619,7.773077843116597,0.8361106207336364,138.45620708007326,10.009682539682565,26.43507936507939
59100,59100.0,2.816590885,-8.249070675,-3.06243664,-0.1015365603,-0.54215317,-0.1076835635,-48.0229186,44.0369415,-121.5682224,9.247636006704537,0.5627228869095241,137.92861219256122,9.957000000000026,26.421000000000014
59200,59200.0,2.990819515,-7.38380745,-1.4388725,0.28765716750000003,0.008586883500000003,-0.047770690010000005,-48.4777073,43.5979462,-121.20140125,8.097654445841089,0.3006912154269946,137.62535517594264,9.904317460317486,26.40692063492065
59300,59300.0,5.529579035,-9.69535725,-4.73048565,0.668922427,-0.42396239999999996,0.037028503250000004,-48.035736,44.04243445,-122.8118136,12.122610627914904,0.7953824697273794,139.03263968858334,9.851634920634947,26.392841269841288
59400,59400.0,-0.16000366000000002,-9.619278,-0.7184524649999999,0.45389557,0.44310761,0.307655335,-48.36448650000001,43.4473419,-123.70544375,9.660019895847153,0.7140753302141899,139.74940114504386,9.798952380952409,26.378761904761923
59500,59500.0,2.9626311000000003,-7.8673173,0.5181503249999999,0.39263916,1.13180542,0.045600891,-46.90849305,44.3955226,-125.0389854,8.528178257777487,1.1989088537545594,140.7346121450314,9.746269841269868,26.36468253968256
59600,59600.0,3.56297305,-10.144805499999999,0.545677185,0.43045807,-0.00483703625,0.586753845,-45.4315954,45.0745393,-127.33985890000001,10.803510997957687,0.7312975786394187,142.51767236806998,9.693587301587328,26.350603174603194
59700,59700.0,1.64641575,-9.8042295,0.792282105,0.6807937749999999,-0.1188201915,0.153190615,-44.27688615,44.80430595,-129.871593,9.978434573610064,0.7118917538774887,144.34187308316166,9.640904761904787,26.33652380952383
59800,59800.0,2.5262909,-9.2200395,0.102752685,0.264808655,0.32379913000000005,-0.16052246,-44.36851495,44.3724062,-131.7648275,9.566859052264775,0.4542899907285559,145.94332910731256,9.58822222222225,26.322444444444464
59900,59900.0,3.0416412,-9.204483,0.8988265999999999,0.21047211,0.271064755,0.173965455,-44.15496925,44.13429305,-132.938839,9.735649049332928,0.385174272327958,146.8685332722619,9.535539682539712,26.3083650793651
60000,60000.0,2.55561825,-9.18473075,0.2021179175,0.31487275000000003,0.247627255,0.30126191,-42.7217098,44.404602000000004,-133.91280700000002,9.537110790346016,0.5015639977124844,147.40953538244688,9.48285714285717,26.29428571428573
60100,60100.0,3.104124455,-9.3029436,1.322477705,0.183958433,0.1891952495,0.29652938149999997,-41.29992126315789,44.495111578947366,-134.6328752631579,9.896104953651319,0.3981818342592401,147.68721390898446,9.430174603174633,26.28020634920637
60200,60200.0,2.596321115,-9.2053213,0.5346137985,0.033479309080000005,0.5234863240000001,0.178012845,-40.2606201,44.6812438,-135.524595,9.581510445484815,0.5553914418261412,148.27086298547218,9.377492063492092,26.266126984127013
60300,60300.0,3.80018311,-9.67009445,1.9498749,-0.0594596869,0.3482498175,0.2752731315,-38.148957,45.1739501,-136.221768,10.571417714108897,0.4494739058811786,148.5005065769319,9.324809523809552,26.25204761904764
60400,60400.0,2.099587245,-12.19842515,-0.2865486018,-0.2910972575,-0.47008973200000004,-0.09410705375,-37.3548888,45.666808700000004,-135.18829599999998,12.389493725011054,0.5660497918728625,147.50188739444192,9.272126984127011,26.237968253968283
60500,60500.0,0.3439781085,-8.78040985,-0.1322357157,-1.676689895,-0.29149856,-0.591154479,-38.568573,46.4627074,-131.484831,8.819267083144837,1.801925097281042,144.68836742588982,9.219444444444473,26.22388888888891
60600,60600.0,1.44411014,-11.4904662,-0.7953064000000001,-1.4767914,0.006350710000000009,-0.40756226,-40.5749505,46.5164181,-123.70651299999999,11.617066601914908,1.5333920289443146,138.25165311377148,9.166761904761932,26.209809523809554
60700,60700.0,2.36156612,-8.317910399999999,-0.16874389399999998,-0.34399108799999994,-0.380978396,-0.6357391400000001,-42.5413514,46.0285953,-119.79232820000001,8.650850666008107,0.8328633929955016,135.19880257616512,9.114079365079396,26.195730158730182
60800,60800.0,0.8311919999999999,-7.73923044,-1.69744264,0.28110656,-0.28893738,-0.5854553220000001,-44.452057,45.067748,-118.50158799999998,7.971669966468911,0.7113712427186418,134.34950734324244,9.061396825396855,26.181650793650817
60900,60900.0,3.98555296,-7.9875152,-2.43964838,0.029278564400000005,-0.125314329,-0.18854675,-45.572509100000005,44.91241420000001,-118.193055,9.257632500133461,0.233590692751478,134.40086381109933,9.008714285714316,26.16757142857145
61000,61000.0,4.880984400000001,-9.020849400000001,-3.80410766,0.594290156,-0.321752936,-0.0038238525999999967,-45.572661100000005,45.3820799,-119.4955465,10.954998182740516,0.6769225928166415,135.70416613992285,8.956031746031776,26.153492063492088
61100,61100.0,2.42597354,-6.85314036,-2.5629517,0.281103514,-0.378634642,-0.24648742399999998,-46.1758429,45.503235,-120.53314499999999,7.712966686544999,0.5404515961754021,136.86122065479282,8.903349206349239,26.139412698412727
61200,61200.0,3.70758364,-13.5466036,-3.28648072,0.90257875,0.112875364,0.564599608,-44.7788991,46.528625299999995,-122.862242,14.460866341020262,1.0706953294389032,138.7994837446953,8.850666666666697,26.12533333333336
61300,61300.0,-0.800933852,-6.5291992,3.06869502,0.043341066,0.880508438,0.223928834,-43.9248658,47.2216798,-124.5788565,7.286569124093938,0.9242241593363112,140.28252699972248,8.797984126984158,26.111253968253994
61400,61400.0,5.4077058,-11.6848784,0.664193708,0.530801376,0.026165774000000003,0.39607543,-41.5121464,47.96753,-127.14095800000001,12.90158895183204,0.6852992324323985,142.088722572339,8.745301587301617,26.09717460317463
61500,61500.0,2.85022584,-9.8753326,0.8066466999999999,0.65267332,-0.0671539296,0.082888793,-41.19430600000001,47.9473885,-129.526522,10.320972773725758,0.6627759218765715,144.12858074387387,8.692619047619079,26.083095238095265
61600,61600.0,2.0294891,-9.022522,1.4969025,0.125146486,0.22452088,-0.0159667982,-41.075896,48.0764771,-131.01593300000002,9.370889076265977,0.26085641294176226,145.47767522620154,8.63993650793654,26.0690158730159
61700,61700.0,2.08815004,-9.5236296,0.4690674,0.152426148,0.336373902,0.23500366399999997,-40.11648210526316,48.26009631578948,-132.17749789473686,9.762188912532553,0.4382481644621128,146.31917909535247,8.587253968254,26.05493650793653
61800,61800.0,2.85860294,-9.0991362,0.17937011400000002,0.18672485800000002,0.256045532,0.15489502,-38.99650525,48.40469375,-133.1752775,9.542399593269199,0.3539469089495961,146.9674462553007,8.53457142857146,26.04085714285717
61900,61900.0,2.4113617,-8.9229246,1.05492552,0.1095977784,0.33403015,0.268240356,-37.640762,49.08866875,-134.3883525,9.303576181327749,0.4422659094262029,147.9420091457269,8.481888888888921,26.02677777777781
62000,62000.0,3.571415936842105,-9.353172631578948,1.092375897368421,0.050215068631578944,0.4509566436842105,0.3568862126315789,-35.7925405,49.767303000000005,-135.13717499999998,10.073504655631092,0.5785352128308585,148.39133782302656,8.429206349206384,26.01269841269844
62100,62100.0,3.031696315,-11.6726657,0.87655795,-0.08667831625,0.0408630361,0.014705658999999998,-34.5760345,50.5413055,-134.991835,12.109032471899571,0.1141793131540376,148.23201482604074,8.376523809523842,25.998619047619076
62200,62200.0,2.22204665,-10.21507505,-1.80296785,-0.931269855,-0.055270386000000005,-0.3262832605,-35.11238,51.67465175,-133.5659025,10.611970996845598,0.988357977086393,147.45528185098055,8.323841269841303,25.98453968253971
62300,62300.0,-0.0747138964605,-10.2163938,-0.021027374350000003,-1.725798035,-0.589450834,-0.695874786,-38.835145000000004,52.96440125,-125.78773625,10.216834393676876,1.953051288139848,141.9029956744639,8.271158730158763,25.97046031746035
62400,62400.0,2.6131362250000003,-9.8924536,-0.3222740165,-0.89499664,-0.2513870295,-0.6038322425,-41.4093015,52.7858725,-119.36683500000001,10.23944834268502,1.1127864330130188,136.92950777695938,8.218476190476224,25.956380952380986
62500,62500.0,1.967114995,-7.38632514,-1.52141039,0.18528518625,-0.6349990895000001,-0.5915313824999999,-44.73381025000001,51.82457025,-116.97235,7.797252936775623,0.8895334312601889,135.53415883436782,8.165793650793685,25.94230158730161
62600,62600.0,2.30009916,-8.333293750000001,-2.85707556,0.129463196,-0.397758482,-0.196316525,-46.64115875,51.62582375,-117.5876625,9.109023910244858,0.4653851591269156,136.62900970481826,8.113111111111145,25.928222222222253
62700,62700.0,3.636716465,-8.3625599,-1.983609025,0.04951629855,-0.06928100549999999,-0.09969787449999999,-47.54448,51.67770375,-117.4819925,9.332938784080936,0.15193967867763022,136.8689446466565,8.060428571428606,25.914142857142892
62800,62800.0,4.48761298,-8.383392050000001,-3.37817686,0.439721675,-0.214375301,-0.092778015,-48.21167,52.088928,-118.4677125,10.092842555406614,0.4979204267133096,138.1022404365527,8.007746031746066,25.900063492063524
62900,62900.0,1.76050268,-8.801292199999997,-2.1850296,0.5606246979999999,0.03446960599999998,0.38435668799999995,-48.149871999999995,52.6863095,-119.79866000000001,9.260813447910358,0.7023852655369196,139.4489800592755,7.955063492063527,25.885984126984162
63000,63000.0,3.78455354,-9.744129800000001,-1.97397924,0.148370359,0.4149887250000001,-0.013516234100000009,-46.48208675,53.443526500000004,-121.860505,10.6919402434587,0.5332502843567803,140.94958257208842,7.902380952380987,25.871904761904798
63100,63100.0,1.252696215,-9.1240384,0.077378845,0.489260855,0.4908325299999999,0.7481430029999999,-45.3796385,54.182815000000005,-124.66163700000001,9.258591881557553,1.0205400430891314,143.30305232601296,7.849698412698448,25.85782539682543
63200,63200.0,1.32356111,-9.299534800000002,0.3023101805,0.581079102,0.07676391599999999,0.187597655,-43.57109075,54.58946225,-128.113935,9.39987969067836,0.6185484998116373,145.91663494543394,7.797015873015908,25.84374603174607
63300,63300.0,3.0558792,-9.4478483,0.192654422,0.306240842,0.349679564,-0.16862182399999998,-43.26782225,54.338837,-130.8689125,9.933990820143585,0.4993893725916335,148.16047860489755,7.74433333333337,25.8296666666667
63400,63400.0,1.92294614,-9.3936246,0.418434145,0.21421203800000002,0.351919566,0.139347838,-43.98193325,53.78303575,-132.50923,9.601694025285424,0.4374198507279657,149.61883681562944,7.69165079365083,25.81558730158733
63500,63500.0,3.13321838,-9.44641445,0.569989011,0.239244085,0.29525146,0.261958315,-42.70019475,54.113007,-134.15069499999998,9.969326773485456,0.4625135285651302,150.8242608103424,7.63896825396829,25.801507936507967
63600,63600.0,2.53323519,-9.505552999999999,0.732315075,0.144433593,0.09817199900000001,0.199743656,-41.6989136,54.312743999999995,-135.572814,9.86540836247036,0.2657763923519186,151.88373995315226,7.586285714285751,25.78742857142861
63700,63700.0,2.19683991,-9.579887199999998,0.42166900399999996,0.1113021858,0.374819944,0.1311431855,-41.21734620000001,54.5220948,-136.5802,9.837612829115699,0.4148340654195302,152.7275250851809,7.53360317460321,25.773349206349238
63800,63800.0,3.5648910000000003,-9.500403,1.2687271,-0.093765258,0.56572112,0.34558258,-39.700623,54.688109600000004,-137.49145199999998,10.227498245134582,0.6696506205890072,153.2020543620855,7.480920634920674,25.75926984126988
63900,63900.0,3.26513668,-12.1602421,-0.28271026,-0.18910827800000002,-0.44329681299999996,-0.06560974010000001,-39.5300284,55.2941892,-137.828974,12.611730132598591,0.4906572884638871,153.67805640180367,7.428238095238132,25.74519047619051
64000,64000.0,0.676766975,-9.3322148,-0.4044525245,-1.77431949,-0.29618072199999995,-0.661625681,-43.156128,55.63598639999999,-132.879942,9.379617140511288,1.9174789966908377,150.38373650312266,7.375555555555593,25.73111111111115
64100,64100.0,1.877456675,-10.992652625,0.009975432499999992,-1.359714525,-0.05224227875,-0.41086579,-46.977234,55.284119999999994,-125.35553,11.155631304904873,1.4215213647152756,144.83509015444446,7.322873015873053,25.717031746031786
64200,64200.0,1.68024065,-8.226444500000001,-0.21327591,-0.500049575,-0.24744416,-0.366920465,-50.3739860952381,54.22624880952381,-121.19700333333334,8.400757725716696,0.6716837179256799,142.0103289354618,7.270190476190513,25.702952380952414
64300,64300.0,1.970836675,-8.561039000000001,-1.502857175,0.46002197,-0.314296725,-0.4369583125,-53.08952275,53.263475,-120.5001825,8.914282806829338,0.7105681396731118,142.0418143414901,7.217507936507975,25.68887301587305
64400,64400.0,2.9808884,-8.59815575,-2.993545525,0.3257904025,0.043098449500000004,-0.353874205,-56.0962675,52.1755215,-122.1797925,9.581780163489329,0.4830012117507868,144.21162742749252,7.164825396825435,25.674793650793692
64500,64500.0,5.0164947400000015,-8.7864564,-3.10954282,0.180325316,-0.514782714,-0.227316286,-57.965088,51.2832645,-121.22536000000001,10.585342953372693,0.5922029412217193,143.82466845675447,7.112142857142897,25.660714285714327
64600,64600.0,2.41663204,-7.0494598,-2.2746856600000003,0.27280273600000005,-0.526281726,-0.17298584399999997,-60.46333325000001,49.565506,-120.27358999999998,7.792672000236067,0.6236106461214812,143.45158742245403,7.059460317460357,25.646634920634963
64700,64700.0,3.00704958,-11.7890226,-2.63813176,0.8929931459999999,0.030419924000000043,0.527099588,-60.57357825,50.49438475,-121.36840749999999,12.45120827350492,1.0508865233377271,144.73853677112126,7.006777777777817,25.63255555555559
64800,64800.0,0.28124695200000005,-7.0398894,-0.2082580559999998,0.31157531800000005,0.51639097,0.46531067200000004,-60.01281650000001,51.21612525000001,-124.90997375,7.0947439330396715,0.7672143501764955,147.74053149012903,6.954095238095277,25.618476190476233
64900,64900.0,3.42267456,-10.677398599999998,0.32589416600000004,0.553814692,0.059179687,0.331311036,-58.7719724,52.4487304,-127.806394,11.228862681562807,0.6518659925488972,150.1316665468565,6.901412698412738,25.60439682539686
65000,65000.0,2.5902191400000003,-10.2253662,1.11071166,0.687185646,-0.120202634,0.103549196,-58.4158324,52.551269999999995,-130.21210200000002,10.6139368123779,0.7067789779133219,152.08310804371212,6.848730158730199,25.5903174603175
65100,65100.0,0.91905824,-8.10985416,1.15166018,0.028857422400000002,0.35469055,-0.14806518200000002,-59.3069448,52.07580479999999,-132.853084,8.263573842565162,0.3871616694671862,154.52890518209009,6.79604761904766,25.576238095238136
65200,65200.0,2.31272576,-9.4544434,0.64001768,0.29005737600000003,0.39475097600000003,0.281448366,-58.806152000000004,52.171936200000005,-133.85986,9.755579416200199,0.5649973338157976,155.237102262222,6.74336507936512,25.562158730158767
65300,65300.0,3.4822906600000003,-9.2066316,0.41279907200000004,0.250851438,0.288223264,0.46190490799999995,-57.185058999999995,53.3651734,-136.008608,9.852290512208302,0.5997351889589604,156.89600444362657,6.69068253968258,25.548079365079413
65400,65400.0,2.37228317,-9.339156599999999,1.42429737,0.0871673573,0.23804855449999998,0.173162078,-55.671082,53.966065,-137.025758,9.741442747789756,0.3082522015821978,157.441002745946,6.638000000000041,25.534000000000038
65500,65500.0,3.712071225,-10.83978715,1.30967023,-0.1657180815,0.578181435,0.1609130835,-54.432678619047614,55.02893338095239,-138.30246761904763,11.534593619960122,0.6241526260556443,158.48882798797908,6.5853174603175,25.519920634920677
65600,65600.0,2.05073932,-11.46898155,-1.114819325,-0.9692527525,-0.461723328,-0.628340152,-56.0995476,55.4574586,-135.22858,11.715349686913664,1.2463627952302396,156.55609695652194,6.532634920634963,25.50584126984131
65700,65700.0,-0.165155795,-10.6486681,0.09491119900000013,-1.881642135,-0.3996185345,-0.54828565,-60.19836360000001,54.983216000000006,-125.14251680000001,10.656545558724444,2.0007566494645865,149.35946022507062,6.479952380952422,25.491761904761947
65800,65800.0,2.78486103,-9.384826400000001,-0.6677612279999999,-0.7712669390000001,-0.397919455,-0.48809586,-62.64679,54.318236600000006,-117.015382,9.814558718012446,0.9993877252952704,143.41513562882085,6.427269841269883,25.477682539682583
65900,65900.0,1.04487308,-7.23967425,-0.408045969,0.3178550745,-0.5144546525,-0.469561009,-65.531008,52.0147704,-114.833678,7.327415253727405,0.770501239366101,142.07990185474551,6.374587301587344,25.463603174603215
66000,66000.0,2.32488014,-9.3572289,-3.57329629,0.2527656595,-0.71632767,-0.2940536515,-66.35009769999999,51.0427093,-112.33161825,10.28727865788152,0.8149575475040262,140.09335645663782,6.321904761904803,25.44952380952385
66100,66100.0,2.19486312,-7.90089799,-1.794472495,0.0938301093,0.183924105,-0.035466002949999985,-67.4933595,50.07675325,-112.7219365,8.395535188618133,0.21579406642669124,140.60336727219507,6.269222222222265,25.43544444444449
66200,66200.0,4.9966225999999985,-8.74042475,-3.39732357,0.50134353,-0.244680024,-0.008456420650000004,-67.276611,50.7914734,-113.183213,10.625710170060163,0.5600371343581498,141.12533861499315,6.216539682539724,25.421365079365124
