Unnamed: 0,st,ax,ay,az,gx,gy,gz,mx,my,mz,AccTotal,GyrTotal,MagTotal,lat,lng
13000,13000.0,3.621511015,-9.116197999999999,0.4391952515,-0.0059822083633000005,0.05429077,-0.00926055875,-45.14160175,36.05537425,-132.5096125,9.819065500190689,0.05546270345585379,144.55651918390043,33.19,32.63
13100,13100.0,3.5187973400000003,-9.101287999999998,0.56328429,0.0022247315,0.0034683227,-0.001159667976,-44.847488500000004,35.84136825,-132.5538625,9.774137424713619,0.0067407405059956935,144.45221221984013,33.13646774193548,32.6156935483871
13200,13200.0,3.4038804,-9.214179699999999,0.492285161,0.040785217,-0.0497848512,0.00853118872,-45.04165675,35.794067,-132.38716000000002,9.835223723604198,0.06504270942337334,144.34808153158517,33.08293548387097,32.601387096774204
13300,13300.0,3.2334122000000005,-9.242543099999999,0.529403674,0.0272506717,-0.0280593876,0.00042877198,-45.119476,36.12785325,-132.8712425,9.806234658658882,0.03913843103185352,144.89913010149598,33.02940322580645,32.58708064516129
13400,13400.0,3.35875552,-9.204358000000001,0.542452999,0.0144638058,0.0142379758,-0.00244140623,-44.99549875,36.008072,-132.6717375,9.813052202319657,0.02059510095349297,144.64782529536478,32.97587096774194,32.57277419354839
13500,13500.0,3.40112913,-9.238954,0.468232723,0.021392822000000002,0.0192428591,-0.00361480716,-44.9951175,35.890578999999995,-132.7098825,9.856226235261405,0.02910927665051433,144.65354086098333,32.922338709677426,32.55846774193549
13600,13600.0,3.40951233,-9.1758747,0.482711796,0.0335372922,-0.00185852054,-0.006912231600000001,-45.14541675,35.9401705,-133.1848175,9.800738438353758,0.03435858837730572,145.14821477620234,32.86880645161291,32.544161290322585
13700,13700.0,3.50826416,-9.341190699999999,0.244844055,0.0316146852,0.0125335694,-0.049635315199999995,-45.169981799999995,35.6642149,-132.746733,9.981361051556133,0.06065259216111224,144.68586235922697,32.8152741935484,32.52985483870968
13800,13800.0,3.50300752,-9.4164853,0.452432248,0.092877195,0.0388442992,-0.0624191285,-45.2705386,35.6015009,-133.363948,10.057182954141554,0.11849248536089185,145.26821693233666,32.76174193548388,32.51554838709678
13900,13900.0,3.54693909,-8.742764600000001,1.21247405,0.108961487,-0.13000488,-0.115365599,-45.4843139,35.0068661,-133.80676599999998,9.512579476070023,0.20520760704916705,145.59733357625203,32.70820967741937,32.50124193548388
14000,14000.0,3.05204772,-9.253084,0.039788818,0.11418304480000001,-0.0160247806,-0.125695797,-45.8432011,34.771421999999994,-133.582913,9.744017343547233,0.17590778854678762,145.44789799885964,32.654677419354854,32.486935483870965
14100,14100.0,5.40855099,-8.3730911,1.33229214,-0.020895386100000003,0.21536102,0.0378326415,-45.6967162,34.31900039999999,-134.11971699999998,10.05683476235227,0.2210572932313318,145.78781226257968,32.60114516129034,32.47262903225807
14200,14200.0,3.85495148,-8.769093100000001,0.12035827699999999,0.0734909057,-0.058851623799999996,0.134020994,-45.7958985,34.6411135,-133.901216,9.579911233722534,0.1650513455062299,145.69424876533412,32.547612903225826,32.458322580645174
14300,14300.0,4.1274048,-9.0340131,0.901579285,0.09062957640000001,0.135351564,0.209759525,-45.216063500000004,35.074767900000005,-134.47066999999998,9.973524309431408,0.2658214911383806,146.14067545124362,32.49408064516131,32.44401612903226
14400,14400.0,4.64851382,-8.7577211,0.561128253,0.220491031,-0.029544067,0.21103973199999998,-44.4418335,35.4252625,-135.379031,9.931854907437543,0.3093105943020157,146.8248256948199,32.440548387096804,32.42970967741936
14500,14500.0,4.09807892,-9.007145874999997,1.043311345,0.04706268375,0.2983421325,0.334979254,-43.56735190000001,35.9793095,-135.625301,9.950741102921883,0.4510653247240119,146.9247161724136,32.38701612903228,32.41540322580646
14600,14600.0,4.81364514,-9.76299475,2.18493271,-0.03208770775,-0.13079910325,0.08165512155000001,-42.784880799999996,36.4898679,-136.458586,11.103743416275645,0.16618132673075894,147.59083372564197,32.33348387096777,32.401096774193554
14700,14700.0,3.6553351999999997,-9.74731225,-0.47717588299999997,-0.52204819,0.0378784195,-0.057251739450000005,-43.288421899999996,36.952211,-135.32028200000002,10.42604047864259,0.5265547451986777,146.80278438434598,32.279951612903254,32.386790322580644
14800,14800.0,3.95508579,-10.387512,-1.148098745,-0.8922790575,-0.7287910495000001,-0.39136352399999996,-44.6636974,37.6681508,-132.647859,11.174618490703402,1.2167908072135467,144.9464627337145,32.22641935483874,32.37248387096775
14900,14900.0,1.88488467,-11.134924900000001,-0.438635255,-1.301773865,-0.503598784,-0.677069075,-47.48046779999999,37.139739,-127.112886,11.306224409159494,1.551430770998317,140.68219797699086,32.172887096774225,32.358177419354845
15000,15000.0,4.891763355,-8.194663575,-0.4239036525,-0.3402069115,-0.4286003155,-0.774651335,-49.498748799999994,36.229553499999994,-124.12857,9.559640747914184,0.9502850121597254,138.4586310051429,32.11935483870971,32.34387096774194
15100,15100.0,2.38377311,-7.632862135000001,-1.576119255,0.243711094,-0.4962936415,-0.7718757595,-52.6325978,34.375915,-122.541044,8.152354650382032,0.9502362708159826,137.72564673917842,32.0658225806452,32.32956451612904
15200,15200.0,4.419538947368421,-7.672951910526316,-2.6746432684210526,-0.08232919631578947,-0.40321511,-0.012598941231578946,-53.58825649999999,33.7884526,-121.15875349999999,9.251773132352293,0.4120392982749535,136.72174425655356,32.01229032258068,32.31525806451614
15300,15300.0,4.72943728,-6.77556152,-2.2454834,0.540182492,0.0594024656,0.0462402346,-53.3242795,33.9654537,-121.0278312,8.564273333749616,0.5456160084458548,136.54635846052597,31.958758064516164,32.30095161290323
15400,15400.0,7.37023316,-8.8223664,-3.89938968,0.34927978600000004,-0.567407224,-0.15083617800000002,-53.528595499999994,34.1346745,-122.41287,12.139205577560695,0.6922102038866845,137.89647449912957,31.90522580645165,32.28664516129032
15500,15500.0,0.464163204,-9.0639438,-1.20830688,0.8020202599999999,0.261593632,0.578869626,-53.582915899999996,34.571686,-122.83599650000001,9.186108537657717,1.0258069108754682,138.4024107384986,31.85169354838713,32.27233870967743
15600,15600.0,3.3941863800000003,-6.89886174,0.3309204048,-0.191653438,1.15087278,-0.170431516,-52.74291985,35.59074355,-125.11711325,7.77450641419011,1.1799461305597188,140.36684273952287,31.798161290322607,32.258032258064524
15700,15700.0,5.36604612,-9.189157000000002,0.456134038,0.514392086,0.5534729079999999,0.48768921200000004,-51.39556885,36.0115812,-128.0858596,10.653084019021987,0.9010822652915348,142.63380031565833,31.74462903225809,32.24372580645162
15800,15800.0,3.73033748,-9.2822966,1.3412688999999998,0.488406368,-0.040740967200000006,0.33620300000000003,-50.8589945,36.8260186,-129.81834700000002,10.100263909829568,0.5971432044199523,144.2068114651623,31.691096774193568,32.22941935483872
15900,15900.0,3.203250925,-8.554752375,0.5268287500000001,0.36307907,0.333389285,-0.14588165,-50.7084658,36.2065125,-132.24136299999998,9.150168583690355,0.5142897570218354,146.1850009388306,31.637564516129054,32.21511290322581
16000,16000.0,3.9065475,-9.109306375,1.188228625,0.18544769,0.3901062,0.3582572925,-50.15998705,36.80305475,-132.973252,9.983253945017813,0.5616226511659544,146.80731944036384,31.584032258064536,32.20080645161291
16100,16100.0,4.4718819000000005,-8.22434975,0.5154533375,0.06507492050000001,0.5160789475,0.31245804,-48.57757585,37.31391905,-134.94590549999998,9.378443629478085,0.6090690888446658,148.19761849392142,31.530500000000018,32.18650000000001
16200,16200.0,5.0279275000000005,-8.776821250000001,1.1379471,-0.11895752,0.2478981,0.2173767125,-46.9660191,38.49876455,-135.32531749999998,10.186819788220573,0.3561572225814392,148.32714001969273,31.476967741935507,32.172193548387106
16300,16300.0,5.4098015250000016,-9.66896025,0.962272675,-0.090190885,0.1490936315,0.065841675,-46.7358405,38.94447255,-135.676726,11.12253114040983,0.1930935201950673,148.6912998354411,31.423435483870982,32.1578870967742
16400,16400.0,3.4295006000000003,-11.042629,-0.7926788499999999,-0.6438636725,-0.7659644999999999,-0.4462814325,-48.00842275,39.1015624,-134.29465950000002,11.61492101585182,1.096532660164182,147.88136643798612,31.36990322580647,32.1435806451613
16500,16500.0,0.6432533375,-10.58234775,-0.6591987749999999,-1.63456345,-0.468753825,-0.48196792,-50.6681059,39.000931,-128.302996,10.626532024961016,1.7689705307891446,143.35313327953256,31.316370967741946,32.1292741935484
16600,16600.0,5.06414644,-9.338554499999999,-0.238418575,-0.8842880190000001,-0.321856693,-0.40650178,-51.8784335,38.481674299999995,-123.701628,10.627762347452034,1.0385483645543359,139.55045746798277,31.26283870967743,32.11496774193549
16700,16700.0,3.259510075,-7.763168275,-1.28169255,0.1321830755,-0.372356425,-0.5757064749999999,-53.65699795,36.52648945,-122.43919340000001,8.520396529588734,0.6987532552803404,138.5809392888627,31.209306451612917,32.10066129032259
16800,16800.0,2.916545875,-7.72277075,-2.48656845,0.111137391,-0.25410461,-0.20793533,-55.04585270000001,35.5586244,-122.2155761,8.627345475329376,0.3477303399812142,138.67637232751844,31.1557741935484,32.086354838709696
16900,16900.0,5.05875015,-7.474975575,-2.128047875,0.11193848,-0.0402603155,-0.0263061525,-54.974136,35.56381210000001,-122.529372,9.274808624073318,0.1326730430277241,138.92606836185226,31.10224193548388,32.072048387096785
17000,17000.0,4.8100585749999984,-8.43503925,-2.514404325,0.5724067625,-0.03998565625,0.040813446,-55.2722168,35.7492065,-123.17886259999999,10.035254588816972,0.5755651729694946,139.66420614484363,31.048709677419357,32.05774193548388
17100,17100.0,3.02308265,-9.574089,-1.3128204675,0.424861925,0.20022201625,0.2935371375,-54.7832495,36.06803845,-124.35661599999999,10.151567854161964,0.5637421926562272,140.5942490445199,30.99517741935484,32.04343548387098
17200,17200.0,4.90792465,-7.421691900000001,0.7659454225,0.1223297125,0.93126297,0.05784988375,-53.40904195,36.766052,-126.76582275,9.026500356748752,0.9413975678453612,142.38636997831043,30.941645161290324,32.029129032258076
17300,17300.0,4.61463175,-9.4442065,1.097846975,0.35589218,0.4955711350000001,0.5947418225000001,-51.8010714,37.9053499,-129.3924695,10.583779657761562,0.8594419261829509,144.43909955452483,30.888112903225807,32.01482258064517
17400,17400.0,3.02835238,-9.450368,1.07072906,0.69559631,0.0319107062,0.041021728650000006,-51.004333200000005,37.7941896,-131.024476,9.984086471768322,0.6982515941475865,145.59314467008727,30.83458064516129,32.00051612903227
17500,17500.0,2.833442305263158,-8.635791894736844,0.7069782478947368,0.15667804894736842,0.28831080000000003,-0.13212986684210526,-51.109924400000004,37.4609376,-132.73620400000001,9.120944179990314,0.3546039510157618,147.08660708130012,30.781048387096767,31.98620967741937
17600,17600.0,4.154718489473684,-8.696407789473685,0.6229296189473684,0.09231968810526316,0.41759932368421054,0.16940227157894736,-50.336608,37.4627686,-134.099424,9.659550897384543,0.4610015436040787,148.05385799369802,30.72751612903225,31.971903225806464
17700,17700.0,4.058634684210526,-8.64846305263158,0.4538831210526316,0.1269145794736842,0.3216673136842105,0.4270790489473684,-48.7673954,38.3480836,-135.34637800000002,9.566399656096008,0.5504058870329662,148.88756039304639,30.67398387096773,31.957596774193558
17800,17800.0,4.612228400000001,-8.98780825,1.29506685,0.07572174000000001,0.206085205,0.32523346,-47.23114,38.8537588,-136.074522,10.184886795134345,0.3930199536506744,149.18706114719262,30.620451612903214,31.943290322580662
17900,17900.0,4.98621215,-9.878985400000001,1.62672273,-0.14234161425,0.324009703,0.224031068,-45.8703604,39.45465120000001,-136.639708,11.1897040953296,0.4231449538509625,149.43622393252866,30.5669193548387,31.928983870967755
18000,18000.0,3.17247928,-10.8672544,-2.23422546,-0.63224792,-0.35243225200000006,-0.473822024,-46.1575316,39.8474116,-135.20507800000001,11.569428208643998,0.8666796710383111,148.3206992578819,30.513387096774178,31.914677419354852
18100,18100.0,1.52144774,-10.3309542,0.284234628,-1.90652162,-0.6577392400000001,-0.48596496,-48.525696,40.5712896,-128.4826664,10.4508340377987,2.0778082609202633,143.2097327600602,30.459854838709663,31.900370967741946
18200,18200.0,4.293463357894736,-9.747774526315789,-0.3155983473684212,-0.8840275894736842,-0.16028073010526314,-0.7801473642105263,-50.1901244,40.158996,-122.96966440000001,10.671596102662212,1.2109213118125313,138.7571408970351,30.406322580645146,31.88606451612905
18300,18300.0,3.034394075,-7.03228314,-1.411634085,0.16041488874999998,-0.5555778495,-0.74082335,-52.78213515,38.2212067,-121.4359315,7.792264769444518,0.9432985441481676,137.81724849773508,30.352790322580628,31.871758064516143
18400,18400.0,2.621341695,-7.42762453,-2.25487211,0.31551283750000003,-0.361752323,0.015988156500000003,-54.3887328,37.1029665,-121.04232649999999,8.208208834142917,0.4865205041063968,137.79001325542322,30.29925806451611,31.857451612903237
18500,18500.0,4.97375925,-7.978707885,-2.67152783,0.4230560325,-0.036949157749999996,0.0468818655,-54.20417775,38.070068299999996,-121.787797,9.774239451993038,0.42930089688273854,138.63564989787886,30.24572580645159,31.843145161290337
18600,18600.0,6.207134999999999,-7.61940451,-3.60969544,-0.0413452136,-0.49688568,-0.52282258,-54.72839355,37.6326746,-121.6426105,10.470485065217249,0.7265526619324298,138.5942214362068,30.192193548387074,31.828838709677434
18700,18700.0,3.00728609,-10.2268038,-2.07536924,0.9444488529999999,0.13300628799999994,0.7396270709999999,-54.72717239999999,38.2330322,-122.629088,10.861820948814037,1.2204235618633117,139.62385721435393,30.138661290322556,31.81453225806453
18800,18800.0,2.15722347,-5.74893172,0.06744235000000033,-0.0491241457,1.13478243,-0.0072387695,-53.284608,39.447936999999996,-125.12420559999998,6.374362576258936,1.1376184284994806,141.60330813992618,30.08512903225804,31.800225806451632
18900,18900.0,6.372331280000001,-10.1858656,0.2138488755,0.416816709,0.48592529999999995,0.63512267,-51.5298464,40.6991576,-127.69378700000001,12.05297063576742,0.9039055075323964,143.5881240202936,30.03159677419352,31.78591935483873
19000,19000.0,2.74116976,-10.061003,0.6667114000000001,0.8311004590000001,-0.28318329200000003,0.158625795,-50.4663084,40.379944200000004,-129.855348,10.45598249780118,0.8922473266229348,145.05106107823892,29.978064516129,31.771612903225822
19100,19100.0,3.00380863,-8.1838318,0.468467709,0.11727142300000001,0.28821716000000003,-0.30902252199999997,-51.001587,39.9563592,-131.711426,8.741466401456783,0.4434520533736283,146.7842040659259,29.924532258064485,31.75730645161292
19200,19200.0,4.17014463,-9.080224900000001,0.341336066,0.1089645402,0.357249448,0.1046188375,-51.066590000000005,39.998779600000006,-132.667234,9.998905552832706,0.3887031151799587,147.6765054433881,29.870999999999967,31.743000000000013
19300,19300.0,3.90738235,-8.785263299999999,0.562197876,0.059635925,0.26116333,0.21945037899999997,-50.252075399999995,40.243226,-133.49548000000001,9.633114214517363,0.3468873052863773,148.20909284460961,29.81746774193545,31.728693548387113
19400,19400.0,3.94035725,-8.79717275,1.05685043,0.07838439999999999,0.2447013875,0.2480011,-49.0313712,40.770874,-134.501034,9.698954132662042,0.3572598504898874,148.85201294727148,29.76393548387093,31.71438709677421
19500,19500.0,4.145660425,-8.901012625,0.8036575300000001,0.0056762692500000045,0.5112876900000001,0.3188476525,-47.828063799999995,41.4675898,-135.159604,9.85328953278968,0.6032631648487506,149.2492069137026,29.71040322580641,31.70008064516131
19600,19600.0,5.8210144,-9.401703,1.17894365,-0.07527923625,0.25962066500000003,0.344409945,-46.23718220000001,42.2766114,-136.086428,11.121538541935964,0.4393259148787345,149.8155999203797,29.65687096774189,31.685774193548408
19700,19700.0,3.872428875,-10.779568,-1.857791875,-0.5125732425,-0.4538421625,-0.13522338825,-46.11572200000001,42.5372312,-135.203552,11.614015170416524,0.6986430433507573,149.05067426500798,29.603338709677377,31.6714677419355
19800,19800.0,1.395027175,-10.192089,-0.2318306024999999,-1.861724875,-0.78487778,-0.827114105,-48.7490852,42.388611,-128.07098,10.306995893307894,2.1835109052170316,143.4423483801109,29.54980645161286,31.6571612903226
19900,19900.0,4.724468249999998,-10.816078,-0.59994888,-0.9234924000000001,-0.563301075,-0.874519345,-51.90521215,40.26008615,-122.186963,11.822094850260816,1.3950943772494548,138.72610799060806,29.49627419354834,31.64285483870969
20000,20000.0,2.620262175,-7.68206425,-1.19041825,-0.15863037,-0.7342758125,-0.8649368374999999,-54.9511705,37.04658515,-119.4692255,8.218181851578452,1.1523545536550344,136.62061757877458,29.442741935483824,31.628548387096792
20100,20100.0,2.04265975,-6.81417085,-2.29982375,0.2877120975,-0.35211563,-0.31898498,-56.43798835,35.369721350000006,-118.3259598,7.477420950919504,0.5570286212322069,135.78402470406465,29.389209677419306,31.61424193548389
20200,20200.0,4.496396489473684,-6.932192263157893,-2.2581843684210527,0.4945381631578947,-0.07820290031578947,0.20555435789473686,-56.457366500000006,35.2664946,-118.46633975,8.566809503486066,0.5418613516117269,135.88789255208886,29.335677419354788,31.599935483870983
20300,20300.0,7.3371918,-9.8604952,-4.3296265,0.449203488,-0.06714782720000001,0.00362854,-55.6057745,36.053237,-119.83345200000001,13.031327584540081,0.4583186429134624,136.93780330505206,29.28214516129027,31.585629032258087
20400,20400.0,0.80222472,-7.3130586,-0.765377812,0.5521148760000001,0.19766845800000002,0.44123535,-55.42701675,35.90812665,-119.4536598,7.421374958699862,0.7477080469152682,136.49480965151506,29.228612903225752,31.57132258064518
20500,20500.0,7.789697200000001,-10.053707800000002,-3.5816772000000006,0.37889404,0.40688477,0.18600464,-53.44734165,37.52861085,-122.3564905,13.238577797577513,0.6569560931688583,138.6949107666348,29.175080645161234,31.557016129032284
20600,20600.0,1.6306152103999998,-9.675659399999999,0.06900024000000005,0.407015986,0.22770996,0.33514404000000003,-52.843095,37.27333055,-125.3193675,9.859710799054634,0.5790300526331811,141.02015656509653,29.12154838709672,31.54270967741937
20700,20700.0,3.40448312,-9.373995800000001,1.32834778,0.444299316,-0.0092010496,9.154999999996803e-06,-52.04086335,37.420502500000005,-126.69479395,10.07287724207198,0.44552491720492143,141.98633547065685,29.0680161290322,31.52840322580647
20800,20800.0,3.40951236,-8.503695599999999,-0.4814300400000001,0.5007598839999999,0.255834962,0.02578125,-51.9084177,37.00714115,-128.675079,9.181581738304018,0.5638229209403968,143.60118748235394,29.01448387096768,31.51409677419357
20900,20900.0,5.17325214,-8.7353348,0.66897583,0.056282806699999986,0.667716985,0.2062484705,-51.19155895,37.04414375,-130.37933049999998,10.17429773582738,0.7012490909836052,144.88485169074738,28.960951612903166,31.49979032258066
21000,21000.0,4.20606448,-8.43246765,0.7953979245,0.14352798309999998,0.292525482,0.32736053499999995,-49.99549865,37.525940000000006,-131.702807,9.456900897094206,0.4632658521947606,145.7855052289655,28.907419354838645,31.48548387096776
21100,21100.0,3.43746034,-9.21543775,1.145011915,0.277585602,0.1101562517,0.2504547155,-48.7663265,37.94632,-132.32345500000002,9.904964041505947,0.3917964221278488,146.03979374185212,28.85388709677413,31.47117741935486
21200,21200.0,4.02045284,-8.68212275,0.69227297,-0.1142097442,0.675814825,0.19900589,-47.559355,38.327027,-134.28191999999999,9.59520792109095,0.7144597295820189,147.5211627802656,28.80035483870961,31.45687096774196
21300,21300.0,5.464327225,-9.44672065,1.00734942,-0.0966423015,0.34392623549999995,0.25002517550000003,-46.247864,39.031219,-134.73663499999998,10.960246841387336,0.4362737589350818,147.7033518695166,28.746822580645087,31.44256451612905
21400,21400.0,4.97125,-11.25619335,-0.9099350166,-0.394970704,-0.8250900240000001,-0.4178390515,-46.6804505,39.0762325,-133.52890000000002,12.346182284004751,1.0061029014283431,146.75203712574478,28.69329032258057,31.42825806451615
21500,21500.0,-0.6703857415000001,-10.9922852,0.05690231299999993,-1.810537705,-0.898704521,-0.847572305,-49.8085025,37.976074,-126.790617,11.031197257801487,2.1924248010222693,141.41968141504066,28.639758064516048,31.41395161290325
21600,21600.0,4.8432817,-9.6367614,-0.10254821799999997,-1.0948913500000002,-0.157385256,-0.5699081429999999,-51.429749,36.49521,-121.684265,10.789335295304944,1.247282144731928,137.0550830429643,28.586225806451534,31.399645161290344
21700,21700.0,2.41830751,-7.02827761,-0.24775390699999994,0.12547302100000002,-0.7470016490000001,-0.548710635,-53.3615115,34.794616500000004,-119.833375,7.439601784894619,0.9385563881364112,135.71354410565314,28.532693548387016,31.385338709677445
21800,21800.0,4.1404540700000005,-8.217475499999999,-3.58431095,0.208352662,-0.149824521,-0.09874267560000001,-54.186248,34.2292785,-119.476317,9.876125241703056,0.27603305717695703,135.5816876006654,28.479161290322498,31.371032258064538
21900,21900.0,4.6984252999999985,-7.70894625,-2.10901188,0.263317875,-0.198506162,0.22882538,-54.092408000000006,34.3261715,-119.95925749999999,9.27203052475156,0.4019222103693984,135.99476646692622,28.425629032257987,31.356725806451635
22000,22000.0,6.0697036,-7.852243059999998,-3.53344264,0.17991180699999998,-0.333261107,-0.289102182,-54.0901185,34.371185,-119.56176799999999,10.535460738858726,0.4792424473587853,135.6546888946101,28.372096774193462,31.34241935483873
22100,22100.0,1.81689151,-9.23009463,-0.874671937,0.81767428,0.27798614600000005,0.668672195,-53.8558965,34.660340000000005,-120.8519,9.448064767263851,1.0926234915224493,136.77410917700178,28.31856451612895,31.328112903225826
22200,22200.0,4.095564250000002,-7.7790985,-0.7409607030000003,0.015103148960000009,0.941009497,-0.03184967069999998,-52.459717000000005,35.609435999999995,-123.30703999999999,8.876202138891076,0.9450332718556438,138.65349860804326,28.265032258064426,31.31380645161293
22300,22300.0,3.63330532,-9.423550175,-0.23051300100000005,0.51605682,0.5905334335000001,0.43527908049999997,-51.7921445,36.1366275,-125.652315,10.107260339954005,0.8991338972878471,140.6300670659487,28.21149999999991,31.299500000000023
22400,22400.0,3.865063435,-9.2630769,1.221627045,0.5757019004999999,-0.321222685,0.2141258205,-51.2649535,36.2342835,-127.10571499999999,10.112414675047237,0.6932376168288249,141.76384370310927,28.157967741935398,31.285193548387124
22500,22500.0,3.55334091,-8.602334575,0.061092376,0.2615531895,0.1569801395,-0.14454803800000002,-51.270294,35.720062,-128.60947,9.308461334028657,0.3392464408341465,142.98611623371778,28.10443548387088,31.270887096774217
22600,22600.0,3.770967065,-8.94346,0.374790196,0.144159702,0.42394028,0.1782859805,-51.22757,35.630798,-129.88433500000002,9.71423682812425,0.4821178489223283,144.09688298645744,28.050903225806362,31.256580645161318
22700,22700.0,3.96214607,-9.0838725,-0.19591827,0.290589129,0.1901077315,0.34047012000000004,-50.164032,36.2449645,-130.966185,9.913262718504518,0.4863237520727377,144.85266852601075,27.997370967741837,31.24227419354841
22800,22800.0,3.983525085,-8.974523,1.01895443,0.1866149915,0.109944152,0.3016929665,-48.9965055,36.5232848,-132.291791,9.871718154865723,0.3714210576488718,145.724859674241,27.943838709677323,31.22796774193551
22900,22900.0,3.507904,-9.209274,0.37808228,-0.05104065,0.6700134,0.17663574,-48.06007395,36.7108152,-133.10630700000002,9.862001028733571,0.6947829076606088,146.2011242608581,27.890306451612805,31.213661290322605
23000,23000.0,6.0744934,-10.035263,2.0049438000000004,-0.20870972,0.28970337,0.030685425,-47.00294435,37.5054934,-133.51547,11.900662720494644,0.3583704579332201,146.43197848074306,27.836774193548287,31.199354838709702
23100,23100.0,3.4839629999999997,-10.844513000000001,-2.248352,-0.8361511,-0.55078125,-0.35386658,-48.206406,37.27706835,-132.4450715,11.610191519025085,1.0619464222943025,145.79198848052602,27.78324193548377,31.1850483870968
23200,23200.0,0.62409973,-10.380035000000001,-0.1797638,-1.6500092,-0.84799194,-0.7139281999999999,-50.650253,36.54808015,-126.014861,10.400333749356387,1.9877912780633795,140.6457664719792,27.729709677419248,31.170741935483893
23300,23300.0,3.39299,-8.863311999999999,0.65940857,-0.92137146,-0.35264587,-0.62338257,-51.96144085,35.42999285000001,-120.96618649999999,9.513437886044848,1.1670005593445074,136.33837655745168,27.67617741935473,31.156435483870997
23400,23400.0,2.9512633999999998,-7.156234700000001,-1.283493,0.2706604,-0.35583496,-0.51686096,-53.74687285,33.75091585,-119.980774,7.846591936548799,0.6833892176925849,135.73229398812595,27.62264516129021,31.14212903225809
23500,23500.0,3.840528125,-8.325929700000001,-3.196219635,0.308324434,-0.3064651425,-0.059969330099999996,-54.32136510000001,33.4091948,-120.0117503,9.710680754118783,0.4388504799397567,135.90380042033058,27.569112903225694,31.12782258064519
23600,23600.0,4.638217115,-7.76831737,-2.51028368,0.0413665775,0.08805542144499999,0.07084731849999999,-54.5764919,33.4767915,-121.0339354,9.38971943005664,0.12266252114508755,136.92517401778693,27.51558064516118,31.113516129032284
23700,23700.0,6.253048685,-7.57462785,-3.47753675,0.205576328,-0.3198936585,-0.341358189,-54.592972,33.13957235,-120.9542845,10.420412154409252,0.5117677768607407,136.77935396826715,27.46204838709666,31.09920967741938
23800,23800.0,2.45487668,-8.518308099999999,-1.14959868,0.70092316,0.012094879700000002,0.497003937,-54.628068000000006,33.47274675,-122.32391225,8.939537767781545,0.8598904125433621,138.0862985464895,27.408516129032144,31.084903225806478
23900,23900.0,3.715791345,-8.549186599999999,-2.05334395,0.05516052205,0.94036941,0.15255889700000005,-53.20037915,34.56626825,-124.23416100000001,9.58222064158208,0.954676074973102,139.49642659792812,27.354983870967626,31.070596774193568
24000,24000.0,4.2917174000000005,-9.64434935,-0.2497390765,0.3439079275,0.768762955,0.5383941725,-52.019195399999994,35.31402605,-126.89437849999999,10.565662090687493,1.0000239773670565,141.6169180742539,27.301451612903108,31.056290322580672
24100,24100.0,3.18469547,-9.1524075,0.915820313,0.60090177,-0.256242371,0.09716034,-51.27036985,35.54107550000001,-128.924029,9.736321520672162,0.6629513039170082,143.2244124895496,27.24791935483859,31.04198387096777
24200,24200.0,3.03469084,-8.8194929,-0.05406951600000001,0.255114734,0.186161806,-0.0781768801,-51.62010120000001,34.7817233,-130.187763,9.330619545879335,0.32721103309183025,144.3026625322925,27.194387096774072,31.027677419354863
24300,24300.0,4.17421133,-8.8824601,0.354022216,0.13495025900000002,0.48603210399999996,0.16832580400000002,-50.97679115,34.9520105,-131.024705,9.820916004391668,0.5319136011692351,144.8718446608055,27.140854838709554,31.013370967741967
24400,24400.0,3.8268172999999996,-9.0331804,-0.10865326,0.257664489,0.324011233,0.406507867,-50.0252533,35.34446735,-133.279193,9.811733325058599,0.5802694459407249,146.68033102885474,27.087322580645036,30.99906451612906
24500,24500.0,4.48222658,-9.2459017,0.7730179070000001,0.167649838,0.0692062383,0.248114012,-48.47175625,36.02088965,-134.106677,10.305254582181279,0.3115455771217536,147.07697069774656,27.03379032258052,30.984758064516157
24600,24600.0,3.9613769999999997,-8.920652699999998,0.657250977,-0.0693725592,0.524073817,0.212203977,-47.54237084210526,36.14429578947368,-135.01859684210527,9.785378734215351,0.5703594461568013,147.63708753697318,26.980258064516,30.97045161290325
24700,24700.0,4.98093567,-11.476456800000001,0.583985883,-0.124223328,-0.148439023,-0.0186294553,-46.8988032,36.7822256,-134.921266,12.530330154602973,0.196598732652022,147.49988627621653,26.926725806451483,30.95614516129035
24800,24800.0,3.6101628473684215,-9.61937,-1.6242900505263158,-1.4016289894736842,-0.5706273263157895,-0.5958589105263158,-48.1134024,36.6641232,-132.265626,10.412231053005529,1.6264641628409662,145.4425104841623,26.873193548386965,30.941838709677448
24900,24900.0,2.955565615,-11.00324755,-0.27840270599999994,-1.345177455,-0.4205566455,-0.5505775345,-50.36437960000001,36.218262,-126.86096200000001,11.401102599352633,1.513278979013425,141.21669066673815,26.81966129032245,30.927532258064545
25000,25000.0,2.289675125,-8.387877300000001,-0.32718429250000003,-0.355762481,-0.333786013,-0.640533444,-52.39074700000001,35.60852,-123.34197900000001,8.700935268781919,0.8060487914264604,138.6581554854476,26.76612903225793,30.91322580645164
25100,25100.0,1.923193335,-7.34029393,-1.611674535,0.3101829555,-0.282820893,-0.3174881,-53.7463378,34.288940000000004,-122.76061999999999,7.7579174780294915,0.5267741244869755,138.3278279217015,26.71259677419341,30.89891935483874
25200,25200.0,4.38646473,-7.8612099,-3.174068495,0.1104507444,-0.054537201140000005,-0.0130950925,-54.0591432,34.0832524,-122.969054,9.545399748120404,0.12637432433393714,138.58386509157302,26.659064516128893,30.884612903225843
25300,25300.0,5.6093054,-8.1489369,-2.38871458,0.389868162,-0.150621798,0.1730628935,-53.6355588,34.385986200000005,-123.627624,10.177520455011962,0.4536482937475955,139.07900729816274,26.605532258064372,30.87030645161293
25400,25400.0,3.719680755,-6.652975395,-3.99881215,0.299111175,0.013121031699999999,-0.35195541750000003,-53.8699338,33.9920044,-124.08996599999999,8.640251770173862,0.4940823191401685,139.48400473967868,26.551999999999857,30.856000000000034
25500,25500.0,5.71153566,-13.5015992,-5.594006200000001,0.5557281479999999,-0.27722167600000003,0.6856109640000001,-52.6773068,34.7912598,-126.503602,15.73735773498506,0.9310282917436691,141.3808805202986,26.49846774193534,30.841693548387127
25600,25600.0,-0.8476257406000001,-7.753353999999999,1.892422456,0.403186032,0.537057484,0.28933716000000004,-51.72058,35.477905,-129.035948,8.123720321038427,0.751345702250987,143.47143679815724,26.44493548387082,30.827387096774224
25700,25700.0,4.07461564,-9.633279,0.79588318,0.4506958,0.13609314167999995,0.075424195,-50.6845092,35.863037,-131.882936,10.509955479043406,0.4824100080737084,145.76758903698303,26.391403225806304,30.813080645161318
25800,25800.0,4.0025542000000005,-9.6107726,0.770974732,0.5776794199999999,0.13503723199999998,-0.051550294,-50.454102,35.01709,-133.497616,10.44880032804585,0.5970633230625036,146.94704881373414,26.337870967741786,30.79877419354841
25900,25900.0,2.95102536,-8.7280306,1.0580444,0.196096804,0.265206908,0.0453948974,-50.249938,35.211487,-135.103452,9.275934770380646,0.3342134041274747,148.3842211220459,26.28433870967727,30.784467741935515
26000,26000.0,3.6233154,-9.052694800000001,0.6744903720000001,0.251062016,0.31272277800000003,0.284008788,-49.322816,35.0817872,-137.009582,9.774237108273537,0.4914371983633229,149.78353038360387,26.23080645161275,30.77016129032261
26100,26100.0,4.0484008750000005,-9.07818975,0.8976288,0.15641785,0.19224167,0.3430709875,-47.90741,35.4589844,-138.464966,9.986507847018284,0.4240046046641494,150.74841445007633,26.177274193548232,30.755854838709713
26200,26200.0,3.10658265,-9.25834675,0.6438408,0.02751922635,0.27425766,0.07968902624999999,-46.9378662,36.02325420000001,-139.017942,9.786945305615738,0.2889845661236863,151.0855414704566,26.123741935483714,30.74154838709681
26300,26300.0,3.91222765,-8.76903175,1.534187325,-0.11443329,0.7150154125,0.2735710125,-45.776672,36.4019774,-140.464478,9.726873939678633,0.7750394800140563,152.1543759366445,26.0702096774192,30.727241935483903
26400,26400.0,5.828186175,-11.14139525,1.398021725,-0.10829925625,-0.280204775,0.01923370399999999,-44.283143,37.4191282,-141.17034999999996,12.662910692811868,0.3114248589712098,152.6116086388642,26.016677419354682,30.712935483871004
26500,26500.0,2.6064987,-9.821285499999998,-1.544158925,-1.5322913999999999,-0.6370735000000001,-0.55813599,-46.728516578947364,38.196362578947365,-137.9263652631579,10.289107128341065,1.7512317508341289,150.55357623227047,25.96314516129016,30.698629032258097
26600,26600.0,3.576148975,-10.8944855,0.54059982,-1.48223115,-0.48447418,-0.680908205,-49.8373422,39.82780455,-132.206798,11.487987210088773,1.7034339420688096,146.79530756569446,25.909612903225646,30.684322580645194
26700,26700.0,2.4126846,-8.707081599999999,0.06936034800000004,-0.538824449,-0.14960022,-0.83164368,-53.323516399999995,38.8885499,-128.1487285,9.043908724381351,1.0080976365950272,144.1459091862011,25.856080645161125,30.670016129032287
26800,26800.0,1.75092163,-6.59408567,-1.055204775,0.33830871500000004,-0.4921875,-0.281971751,-55.532379399999996,37.7330015,-127.13089,6.910811757722268,0.6651574800138462,143.77045760633527,25.80254838709661,30.65570967741939
26900,26900.0,3.90414583,-8.1408614,-2.78022304,0.323716738,0.002627565500000012,0.22008972100000002,-55.80253570000001,38.0084992,-127.09724399999999,9.44730307955736,0.408602232526752,143.9177412841596,25.749016129032093,30.641403225806485
27000,27000.0,7.16110078,-9.419598599999999,-3.83702851,0.221777343,-0.102622984,0.010870360800000006,-55.16250625,38.590164,-128.9319595,12.450557241679993,0.2667784160005406,145.4495510548184,25.695483870967568,30.627096774193586
27100,27100.0,1.4960601999999998,-6.14589222,-1.03987735,0.433753964,-0.0538391112,-0.201007086,-56.7877196,37.62061975,-129.011837,6.449435756289496,0.5254654679746404,145.89117430107618,25.64195161290305,30.612790322580683
27200,27200.0,5.90738075,-13.344053599999999,-5.0326904500000005,0.5004486109999999,-0.09356841880000001,0.532968142,-55.469131299999994,38.682250550000006,-131.213456,15.458957205681743,0.7382912262162599,147.61506564372695,25.588419354838532,30.598483870967776
27300,27300.0,0.17410126999999992,-7.503765700000001,1.287765494,0.322549442,0.592564374,0.286456298,-54.54833975,39.22706595,-133.6296045,7.709290605283745,0.7441746892277377,149.57014409061716,25.534887096774014,30.584177419354873
27400,27400.0,2.88894955,-10.01209985,0.98908921,0.479299927,0.055722045,0.1192611685,-52.9715731,39.48814395,-136.777572,10.492837211596312,0.5420573174708013,151.89938062747166,25.481354838709503,30.56987096774197
27500,27500.0,3.999441525,-9.46790255,0.3734207075,0.5649429260000001,0.145739748,0.014603424200000006,-52.61993399999999,39.276123,-138.5376,10.296814874586612,0.5872254484418875,153.3105929341984,25.427822580644985,30.55556451612907
27600,27600.0,3.046183055,-8.8910742,0.6428832975,0.10773468075,0.42542420200000003,0.0004920956999999969,-52.59765615,38.648834,-140.421222,9.42217420384047,0.4406556134862056,154.84968899851606,25.374290322580467,30.541258064516164
27700,27700.0,3.51096428,-8.93189605,0.5243156455,0.3099182125,0.3370033265,0.2741012595,-51.6610716,38.52890145,-142.3607645,9.611864429608561,0.5350113992186427,156.26888436288482,25.320758064515942,30.52695161290326
27800,27800.0,4.006306966666666,-8.716863333333333,1.1526133333333335,0.13927714333333333,0.3397725433333333,0.38861592666666667,-49.7893524,39.02427695,-143.289641,9.669949087520383,0.536945450938796,156.63292448788866,25.26722580645143,30.512645161290358
27900,27900.0,3.47594606,-9.444505,0.9038574229999999,0.132611081,0.13556518499999998,0.16789551100000003,-48.9484414,39.2475886,-144.651485,10.106598306929081,0.2599642499198882,157.67181552524696,25.213693548386914,30.498338709677448
28000,28000.0,4.220543,-9.3960205,2.04613041,-0.328862,0.603536987,0.17748261,-47.64778145,39.962692,-144.444124,10.503562249930381,0.7113037200848419,157.26235837411164,25.16016129032239,30.484032258064552
28100,28100.0,4.320343033333333,-11.356465666666667,-0.20849100000000004,-0.06951395533333332,-0.4037729866666666,-0.09181213333333332,-47.44628925,40.6248483,-144.306567,12.18615506142675,0.4219364277353001,157.24487663033167,25.106629032257878,30.46972580645165
28200,28200.0,3.175415025,-8.989303249999997,-0.733413695,-1.6574631000000002,-0.835735325,-0.760799405,-50.92872645,41.41036965,-138.56483300000002,9.578637836717396,2.0066300420069068,153.3272691514141,25.05309677419336,30.45541935483875
28300,28300.0,2.92084964,-11.628134,-0.9763091999999999,-1.3323456,-0.7329437320000001,-0.7100921640000001,-55.35278333333334,41.11989466666667,-130.68237333333332,12.030014617031,1.6800574753760864,147.7606900366701,24.99956451612884,30.441112903225843
28400,28400.0,1.9667572,-7.5251830800000015,0.15781556,-0.376373292,0.049380491999999984,-0.665994286,-57.9504384,39.141082700000005,-127.536774,7.785794356222389,0.7761220633782798,145.45114465857282,24.94603225806432,30.42680645161294
28500,28500.0,1.27962954,-7.4152985000000005,-1.47095336,0.39594726799999996,-0.471109006,-0.14145508,-59.4434359,38.283157,-126.43554750000001,7.670379993348072,0.6350877152135556,144.86238444945332,24.892499999999803,30.412500000000037
28600,28600.0,5.32918086,-7.78232708,-2.761911,0.20739441,0.10775756800000001,0.005764770400000001,-59.4134515,37.9088595,-127.5122845,9.83419965960535,0.2341939607294672,145.69296159136792,24.838967741935285,30.398193548387127
28700,28700.0,6.5566925000000005,-9.109191800000001,-3.57163082,0.435568248,-0.31237793199999997,0.1197479252,-59.12735105,37.7211745,-128.2502015,11.7783790109184,0.5518295529786384,146.17477141740397,24.785435483870767,30.38388709677423
28800,28800.0,1.7329101825,-6.51668535,-1.2460785125,0.3252639675,0.182380675,-0.113918305,-60.12817405,36.2845615,-128.7220795,6.9307906594944235,0.4235919526032752,146.63350858226514,24.73190322580625,30.369580645161328
28900,28900.0,7.46791845,-12.9517095,-5.9007109999999985,0.230712895,-0.113761905,0.408321385,-58.6502855,37.47138955,-130.39596550000002,16.098087415398258,0.5947019854630711,147.807618033058,24.67837096774173,30.355274193548425
29000,29000.0,-0.2255515975,-8.1965255,0.74021146525,0.34310532,0.3807907125,0.5095176625,-57.34191895,37.7565763,-133.4648905,8.322833309478746,0.7398143526635209,150.0888695549598,24.62483870967721,30.340967741935522
29100,29100.0,3.856571175,-9.773105625,0.65700912,0.69810869,-0.1963195775,-0.0007362362500000012,-56.491243,37.583999600000006,-135.0730105,10.546707198645567,0.7262302651293409,151.15749424717643,24.571306451612696,30.326661290322622
29200,29200.0,3.1395072999999996,-9.44360725,-0.144443515,0.4735984825,0.01593399049999999,-0.1285629275,-56.9141384,36.2694539,-136.21879700000002,9.957856126759891,0.4970435472821263,152.02082197030478,24.517774193548174,30.312354838709716
29300,29300.0,3.489955875,-9.03448875,1.0864716,0.10501861550000001,0.448970795,0.17823028500000002,-56.47628815,35.94711325,-137.699277,9.748274767818927,0.4957377916340498,153.11090544710638,24.46424193548366,30.29804838709681
29400,29400.0,3.7132187000000005,-8.95248775,0.436740875,0.2794570925,0.448699955,0.32975769,-54.79080175,36.42379795,-139.6195185,9.703724839732788,0.6241129084371485,154.34500508308966,24.410709677419142,30.28374193548391
29500,29500.0,3.84645383,-9.2227963,0.766789245,0.144329831,0.208752441,0.276017763,-53.62498000000001,36.418659999999996,-140.83455333333333,10.023399522440787,0.3756339876652664,155.03674730351577,24.357177419354624,30.26943548387101
29600,29600.0,3.60224306,-9.2010085,0.496600344,0.0125564576,0.441622922,0.186538696,-52.45698605263158,36.730957000000004,-141.51514684210525,9.894951392668558,0.4808465282720381,155.33009122190305,24.303645161290106,30.255129032258104
29700,29700.0,5.16540981,-9.9912125,1.36066434,-0.22425537,0.36055297399999997,0.1473327642,-51.0568231,37.5767518,-142.05505499999995,11.329660237946348,0.4538221296758054,155.55856298522562,24.250112903225588,30.240822580645197
29800,29800.0,3.63516538,-10.929501,-2.238414,-0.908686842,-0.5835983299999999,-0.41480865899999997,-51.65496810000001,37.5669861,-139.006198,11.73484583921352,1.1585008175130729,152.97879837690962,24.19658064516107,30.226516129032298
29900,29900.0,0.5771682779999999,-10.6633867,-0.4853774930000001,-1.74481046,-0.6248214590000001,-0.727886971,-54.641266,37.8471376,-131.76070900000002,10.710345937254901,1.9941295815746132,147.57778920372496,24.143048387096552,30.212209677419395
30000,30000.0,3.05684359,-9.4461716,-0.57647858,-0.78597411,-0.43030700299999997,-0.742266842,-56.769409200000005,36.396331599999996,-126.400755,9.945669508440618,1.1674255283499382,143.26441875297616,24.089516129032035,30.19790322580649
30100,30100.0,1.9075058,-6.8653519,-1.44042816,0.258839415,-0.40046997100000004,-0.388282774,-58.185882400000004,34.78774979999999,-124.822691,7.272234534686804,0.6200783261101995,142.04408124262355,24.03598387096752,30.183596774193592
30200,30200.0,3.56046756,-8.017682,-2.8768265,0.22027282399999998,-0.375871277,-0.0887207042,-58.33450300000001,33.8873292,-124.39895700000001,9.23892801963128,0.4453461198726684,141.514708044673,23.982451612903,30.16929032258069
30300,30300.0,5.15751953,-7.94310005,-2.5985077000000003,0.231361387,0.02425231900000001,0.108139037,-58.24394225,33.568192,-125.08087150000001,9.824070087965664,0.27509029604610125,142.0015205553691,23.92891935483848,30.154983870967783
30400,30400.0,5.166791495,-7.49897082,-4.166471845,0.30283661,-0.715797405,-0.39494018299999994,-58.330535999999995,32.64198375,-124.29961999999999,10.029994821867376,0.8758234189502112,141.1325363086655,23.875387096773963,30.140677419354876
30500,30500.0,1.6150016699999998,-11.44288515,-1.688109575,0.7385849025,-0.01996231400000001,0.7818054195,-57.58247400000001,32.85522475,-125.48332,11.807769668217144,1.0832469872246744,141.92020686669872,23.821854838709445,30.126370967741977
30600,30600.0,0.79910584,-6.6644744000000005,3.36198122,0.228692626,1.29339908,0.0816040052,-56.163025,33.47549475,-128.4103365,7.590398398213995,1.3258707411726012,144.09839154218972,23.76832258064493,30.112064516129074
30700,30700.0,5.0282943200000005,-10.059629025,0.672212987,0.43898009999999993,0.34702759,0.284545902,-55.227662,33.9061735,-130.8406775,11.271586756595815,0.6359880274772258,146.01041427745875,23.71479032258041,30.09775806451617
30800,30800.0,4.213714605,-9.7868118,1.09850613,0.7070541425,-0.09953842135,0.13966903575,-54.866026500000004,34.02633675,-131.53266499999998,10.719883148571515,0.7334226305637861,146.52276728178933,23.66125806451589,30.08345161290327
30900,30900.0,2.278618194736842,-8.621552315789472,0.8026203578947368,0.16172549578947368,0.2347604842105263,-0.10151511842105262,-54.55436675,33.321381,-133.2794175,8.96075807873497,0.309775263884538,147.81720779450086,23.607725806451374,30.069145161290365
31000,31000.0,3.3265532999999996,-9.39961225,0.2494049075,0.29197693,0.299827575,0.34068299,-53.9485925,33.41560375,-134.09805,9.976222252827764,0.5398373742298642,148.355518851513,23.554193548386856,30.054838709677462
31100,31100.0,4.295005799999999,-8.967452999999997,0.6588058450000001,0.1939621,0.22153473,0.40086365,-52.32696525,34.099579999999996,-135.6376675,9.967525915648444,0.4977278442140829,149.3267671829705,23.500661290322338,30.040532258064562
31200,31200.0,3.7359619,-9.46006,0.791687025,0.056015015,0.28544617,0.11591339,-51.23481750000001,34.545516750000004,-136.2777725,10.205021098813376,0.3151920901253159,149.63298859753138,23.44712903225782,30.026225806451656
31300,31300.0,4.73152541,-9.3547799,1.4606284900000002,-0.29216690149999996,0.4821014415,0.1210754425,-50.01869325,34.754181,-136.917495,10.588137958883026,0.5793075236953679,149.85373798509443,23.393596774193306,30.011919354838753
31400,31400.0,3.78012845,-11.47615725,-1.66907806,-0.543247982,-0.5081192015,-0.3644706715,-50.0358575,35.291290999999994,-135.1356525,12.212957239462973,0.8288566305278244,148.36023823288787,23.340064516128784,29.99761290322585
31500,31500.0,0.6445594995,-10.07693025,-0.331072994,-1.837543495,-0.6780311634999999,-0.748445127,-52.36892675,35.13717625,-129.2400375,10.117343771541789,2.0970657005315068,143.80624081338266,23.286532258064266,29.98330645161295
31600,31600.0,3.525209045,-10.290796,-0.16641616880000001,-0.9616905000000001,-0.3341659525,-0.7167495770000001,-54.432679,34.15641775,-124.1722125,10.880603838491993,1.2508586365295915,139.8160645285624,23.232999999999752,29.969000000000047
31700,31700.0,1.525750755,-6.5144774000000005,-0.5616958665,0.0525535584,-0.379059603,-0.3155235345,-55.87883,32.76023875,-122.302247,6.716062543455863,0.5142556641323892,138.39630824883886,23.17946774193523,29.95469354838714
31800,31800.0,4.10358888,-8.907599000000001,-2.75256956,0.30241089,-0.313867188,0.053485107200000014,-55.80558825,32.68966625,-122.502135,10.19659743239341,0.4409672931736405,138.52693095137917,23.125935483870716,29.940387096774238
31900,31900.0,4.13950202,-7.56397402,-2.3694976600000004,0.018841553,0.243481444,-0.159564208,-55.9497835,32.239914,-122.44797,8.94585303352236,0.29274316811431034,138.4317492171708,23.072403225806195,29.926080645161328
32000,32000.0,5.9171966,-8.3502322,-3.76604012,0.35759582799999995,-0.456613152,-0.1080078148,-56.2548824,32.201234,-122.92419199999999,10.908377240946677,0.5929789761891101,138.96722855537462,23.01887096774168,29.911774193548432
32100,32100.0,2.6764037999999997,-9.7350311,-2.8622254000000003,0.51759644,-0.12766113199999998,0.1862152108,-56.44836494736842,31.875690947368426,-122.43041894736844,10.499071923680958,0.5744074388321703,138.5341677631976,22.965338709677162,29.89746774193553
32200,32200.0,5.59876702,-11.618554800000002,-3.6116058,0.321798708,0.14611205600000002,0.40502013,-55.09948720000001,33.2250972,-124.704896,13.395167140752141,0.5877579066198029,140.3253370710253,22.91180645161264,29.883161290322622
32300,32300.0,0.74764098,-8.7208556,0.09293823999999984,0.47562561,0.8361908020000001,0.365609742,-54.1308592,34.051208800000005,-128.5488908,8.844166058493828,1.029312457523112,143.57759688641815,22.858274193548127,29.868854838709726
32400,32400.0,4.079410555,-9.48119415,0.8288559055,0.37713470299999996,0.378286743,0.110956573,-53.112488,34.641418200000004,-130.72937199999998,10.35552286921202,0.5466935944592715,145.2967369038898,22.804741935483605,29.85454838709682
32500,32500.0,3.536759165,-8.4356371,0.4254920975,0.36302566399999997,0.1629440345,-0.028598785569999993,-52.7709968,34.2892458,-132.86956999999998,9.159755399182854,0.4027271581497331,147.01996587165206,22.75120967741909,29.840241935483924
32600,32600.0,4.026192465,-9.0748399,0.224140172,0.215225981,0.40987396,0.2931671075,-51.940308,34.2343146,-134.583124,9.930603051194288,0.5488225689593821,148.26485524389753,22.697677419354573,29.82593548387101
32700,32700.0,4.462903555,-8.7623935,0.543349454,0.219316101,0.16901473949999998,0.505908958,-50.1409908,35.3305056,-136.32172,9.850696917115286,0.580874097476562,149.48595329774363,22.644145161290048,29.81162903225811
32800,32800.0,3.489476725,-8.966140874999997,1.122679115,0.21005325600000002,0.074581146,0.296952822,-48.8583376,35.5731198,-137.29126200000002,9.68864515818335,0.37161518517696296,150.00516220094886,22.59061290322553,29.797322580645215
32900,32900.0,3.70919799,-9.31276195,0.21204757684999997,-0.0007057185000000077,0.534825137,0.25716858,-47.6367184,36.101074,-138.29620599999998,10.031031166274255,0.5976449183550033,150.659900731147,22.537080645161012,29.78301612903231
33000,33000.0,5.5818878299999986,-11.622500599999999,0.58554229,-0.208062742,-0.1634567278,-0.020443727,-45.9603884,36.829223799999994,-138.140256,12.916392297875545,0.2906768933717169,150.17152577423514,22.483548387096494,29.7687096774194
33100,33100.0,2.80473177,-9.6371106,-0.3373016288000001,-1.52899783,-0.909454343,-0.8960952919999999,-47.79632460000001,37.276000399999994,-134.14031599999998,10.065678306453812,1.9930636670180983,147.1998853653507,22.430016129031983,29.7544032258065
33200,33200.0,1.663414,-10.817100300000002,0.1093429565,-1.4237427,-0.425827027,-0.530281068,-50.4162606,37.60437,-127.49755800000001,10.95602463673707,1.57810622550432,142.16763745784036,22.376483870967466,29.740096774193603
33300,33300.0,2.44835358,-8.0352768,-0.5651016120000001,-0.5278594879999999,-0.308326725,-0.71456757,-51.7968748,36.99035739999999,-123.806152,8.420669573657937,0.94371222560947,139.20914364918852,22.322951612902948,29.72579032258069
33400,33400.0,2.34145205,-7.061319,-1.57450259,0.22805328100000002,-0.48313599100000004,-0.223167418,-53.015137,36.271361600000006,-122.412722,7.606618147700114,0.5807257587673219,138.24300840983236,22.269419354838423,29.71148387096779
33500,33500.0,3.79437252,-7.52794496,-3.33651272,0.452616885,0.15889129800000001,-0.02736816415,-52.84179720000001,36.0461426,-123.05053999999998,9.06668641411105,0.4860225247685213,138.683303119513,22.215887096773912,29.69717741935489
33600,33600.0,6.654020631578947,-9.756534,-3.839618947368421,0.4154920147368421,-0.4071944378947369,-0.11043669289473684,-52.636413600000004,36.41021679999999,-124.373474,12.418873847952199,0.5987803529958916,139.87520932877771,22.162354838709394,29.682870967741984
33700,33700.0,0.87129593,-7.257698025,-1.1533050450000002,0.2887802125,0.12246704000000005,-0.019645689999999997,-53.7637007368421,35.55338021052631,-123.48576631578949,7.457913097628933,0.3933754588628495,139.2958416077785,22.108822580644876,29.668564516129077
33800,33800.0,6.05414585,-12.2777405,-5.111221125,0.4557609525,0.2348442065,0.53109359,-51.767548952380956,37.40285142857143,-126.01986866666668,14.616186200734381,0.7564494580525891,141.2797591834959,22.05529032258036,29.654258064516178
33900,33900.0,1.115505245,-8.1722835,0.09796904500000014,0.396366115,0.7381820625,0.5654525675,-50.401534000000005,38.5009002,-129.12918249999998,8.312283344926781,1.0123311415808007,143.8646958346981,22.00175806451584,29.639951612903275
34000,34000.0,3.612953225,-9.80363475,0.9296569875,0.6456337125,-0.4983177175,0.045074463,-48.934404,38.698730299999994,-131.865082,10.512180271892019,0.8190247804424351,145.87867729491498,21.94822580645132,29.625645161290368
34100,34100.0,3.0730629,-9.20567725,-0.07023239249999991,0.537513725,-0.037857055999999986,-0.076641085,-48.80180355,38.31909145,-133.00064400000002,9.711123308374537,0.5446422426198603,146.7622658551441,21.8946935483868,29.61133870967747
34200,34200.0,3.6015816,-8.575107749999999,0.80036927,0.1849174475,0.546974175,0.150531771,-48.5490421,38.43421895,-134.78943,9.340573627694244,0.5979768766634073,148.3321306199303,21.841161290322283,29.59703225806457
34300,34300.0,3.4494903800000003,-9.102493199999998,0.35102844200000005,0.126214598,0.519381712,0.35643920799999995,-46.99722295,38.55697625000001,-136.54564100000002,9.740844366885707,0.6431115826380532,149.4661396856221,21.787629032257765,29.582725806451663
34400,34400.0,4.4636748,-8.763226600000001,1.67047734,0.0510131838,0.19277039,0.37264099,-45.13824520000001,39.4293978,-137.4661215,9.975632310968171,0.4251311686187009,149.9636241136191,21.734096774193244,29.568419354838763
34500,34500.0,3.50718684,-9.117331,0.7235717740000001,0.0024383544799999983,0.4290527300000001,0.13060913400000002,-43.96942135000001,39.8442836,-137.4872635,9.795440301198393,0.4488881010094051,149.74533544135167,21.68056451612873,29.554112903225857
34600,34600.0,5.681601000000001,-11.1820954,0.331399544,-0.303509524,-0.1954162596,-0.08457031539999998,-43.11927815,40.52665735,-137.5529525,12.54926544323956,0.3800356614089563,149.74144236649641,21.62703225806421,29.539806451612954
34700,34700.0,2.37282416,-10.1238492,-1.0720825,-1.60207212,-0.7461578200000001,-0.802987652,-45.6411737,41.26106235,-132.11098049999998,10.471441027274711,1.9418403795656052,145.73687518111083,21.57349999999969,29.52550000000005
34800,34800.0,2.88877262,-11.0544858,-0.375607276,-1.46699828,-0.48452148799999994,-0.461254884,-48.1822972,41.300812,-124.87388625,11.439736857810589,1.6135438034581742,140.07457413066396,21.519967741935176,29.51119354838715
34900,34900.0,1.7400299,-7.62407228,0.12956543399999998,-0.369769292,-0.173040768,-0.637875368,-50.31265375,40.05020075,-120.67459009999999,7.827420134274497,0.7598123309340377,136.7398130142659,21.466435483870658,29.496887096774245
35000,35000.0,1.825929995,-6.693147175,-2.018149645,0.36824798950000004,-0.22012253,-0.07674560519999997,-51.15600555,39.4765467,-119.22485400000001,7.225671128522777,0.4418923910147041,135.60962123884934,21.41290322580614,29.482580645161338
35100,35100.0,4.507611895,-8.2475203,-3.044000995,0.4703514115,0.06136856215,0.262539672,-50.51193225,39.9427031,-120.65795875,9.881373862310696,0.5424457246164054,136.76715448371255,21.359370967741626,29.468274193548442
35200,35200.0,6.650653175,-9.763530699999999,-3.86706618,0.3885917665000001,-0.44783172649999997,-0.291399395,-50.50819310000001,39.63676455,-121.09046699999999,12.430427477108257,0.6654438489894074,137.0587477684669,21.305838709677104,29.453967741935536
35300,35300.0,0.0921035825,-8.9499131,-0.34131087800000004,0.524144746,0.152345282,0.43351287450000003,-50.9716036,39.21905535,-121.36100875,8.957947364121868,0.7054690999751525,137.34896379047063,21.252306451612586,29.439661290322636
35400,35400.0,4.25495915,-8.202202675,-0.41492996549999983,0.2739173925,0.9725959955,0.019824219299999998,-49.5824435,40.6278239,-123.70826799999999,9.305135900403911,1.0193062531984172,139.32978523827978,21.198774193548072,29.42535483870973
35500,35500.0,3.866262035000001,-9.54332305,0.409397135,0.3965293885,0.33935242,0.516977669,-48.30703755,40.96893265,-126.69723400000001,10.327939410938454,0.7348754203501829,141.64827444132436,21.14524193548355,29.41104838709683
35600,35600.0,3.01973111,-9.3729152,0.95807802,0.755891423,-0.06492156880000001,0.14425048399999998,-47.7885424,41.503144,-128.35159199999998,9.894146923595676,0.7723950659461406,143.10981199214706,21.091709677419036,29.396741935483927
35700,35700.0,2.83070678,-9.0909945,-0.243803409,0.273867803,0.3430831936,-0.090217591,-47.708588,40.8311477,-130.539857,9.527126351530391,0.4566591602769148,144.8583997183387,21.038177419354515,29.38243548387102
35800,35800.0,3.76672366,-9.009830000000001,0.812757865,0.188964842,0.42201691,0.195915225,-47.0816038,41.0020443,-131.58279499999998,9.799945806098183,0.5024185227487451,145.64306633713426,20.98464516129,29.36812903225812
35900,35900.0,3.34498902,-9.1615113,0.52616575,0.21442108,0.38195953,0.395649717,-45.52139260000001,41.6531373,-133.063969,9.76741418233687,0.5902783108492126,146.67387204369456,20.931112903225483,29.353822580645215
36000,36000.0,4.20114902,-9.380333,1.24000247,0.154025269,0.181373598,0.30702209399999997,-44.2980942,41.819763,-133.997807,10.35326244282173,0.3888453939901239,147.1958898781351,20.87758064516096,29.339516129032308
36100,36100.0,3.59721828,-9.2719929,0.499951172,-0.08001251549999999,0.5106506160000001,0.145837401,-43.1494155,42.2979735,-134.283143,9.95884257709086,0.5377277971040064,147.25135857871518,20.824048387096447,29.32520967741941
36200,36200.0,3.84681394,-11.6725375,0.12585449199999998,-0.177174374,-0.2214050295,-0.11663512839999997,-42.6028441,42.539214799999996,-133.985595,12.296267801109488,0.3093821603833686,146.89028917512442,20.770516129031925,29.310903225806502
36300,36300.0,2.95431286,-9.6817653,-0.7236618200000002,-1.70427938,-0.5555206315,-0.6097961230000001,-44.261016,43.2871996,-129.423214,10.155527688574177,1.89372093157098,143.4688095738413,20.716983870967407,29.296596774193606
36400,36400.0,2.92330473,-11.038865699999999,0.18804245400000005,-1.4502212250000002,-0.3579681435,-0.5603752,-46.913757,42.274169,-121.681063,11.424835744524312,1.5954112479188685,137.09264251305956,20.663451612902893,29.2822903225807
36500,36500.0,1.778695695,-7.723062850000002,-0.03802490268000003,-0.40049744,-0.14444503449999999,-0.6266822774999999,-48.661497999999995,40.8865359,-118.02353,7.9272517056833856,0.7578829070231559,134.04938206138613,20.60991935483837,29.267983870967804
36600,36600.0,1.65874558,-7.62526485,-1.197060395,0.45239563299999996,-0.104335019,-0.186737822,-49.6884153,40.39612,-117.121279,7.895256663517925,0.5028793957818267,133.48476372945382,20.55638709677385,29.25367741935489
36700,36700.0,4.0117736599999985,-8.398109100000001,-2.96039126,0.356947329,0.27777404860000005,0.0678649883,-49.7154239,40.4765317,-118.238681,9.767082012590489,0.4620174593763926,134.50046474591525,20.502854838709336,29.23937096774199
36800,36800.0,6.416619799999999,-9.2573943,-3.4140867999999993,0.128448485,-0.24707031100000001,-0.233181762,-49.8640441,40.413361,-118.7587,11.7700752573592,0.3661918393979789,134.99369706818956,20.449322580644818,29.225064516129088
36900,36900.0,1.9898727,-5.774668900000001,-1.32958221,0.34810638400000005,-0.005895995900000006,-0.094903565,-50.8480847,40.0866684,-118.51409950000001,6.261290856819159,0.3759407624503002,135.0484063480045,20.3957903225803,29.21075806451618
37000,37000.0,5.45092774,-14.4370068,-5.13408053,0.896192933,-0.11753998000000003,0.7336517469999999,-48.8203436,41.421204,-121.17324950000001,16.278630983894725,1.16882592038478,137.04809260085528,20.342258064515786,29.19645161290328
37100,37100.0,-1.383098044285714,-6.3570905,3.675582957142857,0.02824401857142857,0.6015341857142857,0.08958435071428572,-48.6241164,41.8048094,-122.400512,7.504766710236943,0.6147902852082141,138.18044068457064,20.288725806451264,29.18214516129038
37200,37200.0,5.0839492700000015,-10.2442301,1.04247592,0.5151512149999999,0.4008140595,0.3299247775,-47.275236799999995,42.82669110000001,-124.250795,11.484613036491648,0.7417335720628304,139.6687063949486,20.235193548386746,29.167838709677483
37300,37300.0,3.341271895,-9.8652852,0.1655387865,0.574484275,-0.017826842800000006,-0.05251541349999998,-46.7799376,42.9853826,-126.30981799999999,10.419057580421608,0.5815043773005428,141.3869959183211,20.18166129032223,29.15353225806457
37400,37400.0,2.07964634,-8.4363022,0.93880465,0.0591049192,0.31122742,-0.079985045,-47.19627405,42.6953885,-127.766268,8.741520743537624,0.3271496032268917,142.73963910274676,20.12812903225771,29.139225806451673
37500,37500.0,3.6144505947368417,-9.270508578947368,0.5522966884210526,0.3354821473684211,0.2644757752631579,0.31764300210526314,-46.240716473684216,42.713527210526316,-128.7347936842105,9.96561473566788,0.532523183154067,143.3014557780568,20.074596774193196,29.12491935483877
37600,37600.0,3.72937,-9.131454,0.66059875,0.16200256,0.21194458,0.3491974,-44.610670500000005,43.4605411,-129.783096,9.885749514301764,0.4394361826302995,143.95344317392642,20.021064516128675,29.110612903225864
37700,37700.0,3.375509625,-9.728328675,0.78270113,0.03667907748,0.38584746950000004,0.1884605385,-43.52104360000001,44.10217255,-130.62874100000002,10.32717044236988,0.43109632398731695,144.57853351262096,19.96753225806416,29.09630645161296
37800,37800.0,4.2370683,-9.642024,1.24286955,-0.11367645300000001,0.464520266,0.189204407,-42.65167279999999,44.6573653,-131.0014315,10.605751393352431,0.5150490965860608,144.826898348499,19.91399999999964,29.082000000000054
37900,37900.0,4.1907371300000005,-11.8524652,-1.148276505,-0.489933016,-0.336023719,-0.2940551745,-42.5201419,44.84649675,-130.045322,12.627948313870005,0.6629219410540331,143.98254329301986,19.86046774193512,29.067693548387155
38000,38000.0,0.6545013293999999,-9.3998414,-0.48382568,-1.8415466,-0.7322997800000001,-0.821954328,-45.17437195238095,44.12093347619048,-122.20909428571429,9.443174536317864,2.1457123786731773,137.55953996908994,19.806935483870607,29.053387096774248
38100,38100.0,3.47391968,-11.193588,-0.435461427,-1.184491,-0.431048576,-0.599948108,-47.5494383,42.4848941,-114.85702509999999,11.734087465641773,1.3975561759336113,131.3704892206129,19.753403225806085,29.039080645161352
38200,38200.0,1.937912,-7.4411466750000015,-0.18903350875,-0.027076725000000003,-0.31349945,-0.43935775,-49.4311526,40.7437136,-112.687227,7.696577402958832,0.5564069071208815,129.62216894718867,19.699870967741564,29.02477419354845
38300,38300.0,1.685916875,-7.5273475,-1.556724525,0.545772555,-0.315364835,0.1294899,-49.646148600000004,40.5482486,-113.0105594,7.8794160439337135,0.6461061980514048,129.9241892304624,19.64633870967705,29.01046774193555
38400,38400.0,5.5986405,-8.39074725,-3.20753095,0.1311111425,0.294231415,-0.058265687249999996,-49.148559399999996,41.2318422,-114.061889,10.592338000107947,0.3299279652008609,130.86544375576418,19.59280645161253,28.996161290322643
38500,38500.0,5.40830225,-7.90234015,-4.038909925,0.08903885,-0.902317035,-0.394081115,-49.649193333333336,41.21137342857143,-112.86425133333331,10.393819215627873,0.9947237497346778,130.00679426545858,19.53927419354801,28.981854838709737
38600,38600.0,1.369886788,-9.8408567,-1.35997929,0.736296085,0.13844452000000002,0.613385001,-49.6170035,41.3648998,-113.76357800000001,10.042729374571019,0.9688334204811836,130.8247592054467,19.485741935483496,28.967548387096834
38700,38700.0,3.07383425,-8.04029686,0.431602494,0.0576141379,1.1447936900000002,-0.015222167880000003,-48.78334065,42.381514200000005,-115.439298,8.781303283222442,1.1465008382152255,132.29603944982836,19.432209677418975,28.953241935483927
38800,38800.0,4.40585938,-9.9762463,0.03726959599999996,0.391787717,0.596076967,0.49887238100000003,-48.25599800000001,43.02932735,-118.15719299999999,10.919903156850959,0.8733251106833093,134.6896937596142,19.37867741935446,28.93893548387103
38900,38900.0,3.05791631,-9.737074400000001,0.9912414279999999,0.67887114,-0.287339782,0.285926821,-47.7568054,43.90251170000001,-120.2736645,10.258682163171096,0.7948034513251685,136.6524731476099,19.325145161289946,28.924629032258125
39000,39000.0,3.03003087,-8.9602677,0.024583435200000003,0.26437835600000004,0.160070799,-0.172033695,-47.85888715,43.632584,-122.34489450000001,9.466399922860587,0.3586817480953885,138.42886162291364,19.271612903225428,28.910322580645218
39100,39100.0,3.49438631,-8.9514189,0.9402435259999999,0.232849125,0.233995056,0.27164612,-47.97393775,43.821715999999995,-123.3106975,9.655435486950925,0.4276809276994994,139.38210079602348,19.218080645160907,28.896016129032322
39200,39200.0,3.32020419,-9.2248323,0.4107620168,0.294316101,0.258599849,0.42312927,-46.43981925,44.5724484,-124.97680449999999,9.817232764706972,0.5771553985967579,140.57940023199683,19.164548387096392,28.881709677419416
39300,39300.0,3.5775864200000003,-9.05185235,0.936534118,0.128033445,0.22323913899999998,0.208912655,-45.54695135,45.14122085,-126.24496450000001,9.780375616446255,0.3332511046119481,141.59819302059816,19.11101612903187,28.867403225806516
39400,39400.0,2.9449112,-9.228666699999998,0.92516021,0.014361571799999999,0.43394928,0.227017214,-45.15831005,45.436553,-126.1751525,9.73603460494906,0.4912163512334724,141.50592506824097,19.057483870967356,28.85309677419361
39500,39500.0,4.471639205,-11.28367145,0.93018797,-0.158528135,0.0026733398499999995,0.021690369450000004,-44.76478238095239,45.89851061904761,-126.03767023809523,12.183452061943564,0.16911733223982486,141.40743175228226,19.00395161290284,28.83879032258071
39600,39600.0,2.4514053,-9.83846755,-1.202681736,-1.27603836,-0.281805423,-0.4396308875,-46.194992,45.24131925,-123.316803,10.213188848613086,1.3798854479501903,139.24022250113023,18.95041935483832,28.824483870967804
39700,39700.0,0.6492919850000001,-11.1889206,0.08581314199999998,-1.64489136,-0.3359199525,-0.5479675104999999,-48.70453,43.50891,-115.78522,11.218440923248973,1.767150868601762,132.93371905712036,18.8968870967738,28.810177419354897
39800,39800.0,2.96173327,-8.5886885,-0.023121646999999995,-0.769451915,0.05301132195,-0.48298492200000004,-50.221252,40.93933,-110.73761,9.091864650913507,0.9143790128161144,128.30051115178188,18.84335483870928,28.795870967742
39900,39900.0,2.29082183,-7.55619426,-1.53116451,0.2307678265,-0.6270019520000001,-0.444956976,-51.864624,39.334106,-109.53522,8.050732595477786,0.8035885044092812,127.41693583636757,18.789822580644763,28.781564516129087
40000,40000.0,3.5673462,-8.26403775,-2.679905685,0.2658744785,-0.1693664575,-0.298210914,-52.835083,38.485718,-109.3277,9.392037273696914,0.4388189203644427,127.37834381433296,18.736290322580246,28.76725806451619
40100,40100.0,4.3466004,-8.5290772,-2.9634979,0.440042116,-0.298101806,-0.12058410800000001,-53.521730000000005,38.209534000000005,-110.09827,10.027798361293657,0.5488238176008081,128.24263381451178,18.682758064515728,28.75295161290329
40200,40200.0,3.82729796,-7.9243042,-3.02191468,0.0009429931999999996,-0.405484004,-0.44398804,-54.49066,37.643433,-109.417725,9.305204990222776,0.6021030061507116,127.90034643986199,18.62922580645121,28.73864516129039
40300,40300.0,2.7616394,-8.4582032,-1.51835634,0.698052984,-0.054162595599999995,0.495571902,-54.397583,37.930298,-109.906006,9.027667853673842,0.8637664610905792,128.36329186135237,18.57569354838669,28.724338709677482
40400,40400.0,5.17068176,-11.2773836,-3.70330496,0.231042484,0.2914092998,0.09545288,-53.443909999999995,39.73236,-112.04834,12.959190576199912,0.477276006799171,130.34470623701333,18.522161290322174,28.71003225806458
40500,40500.0,1.7194427600000002,-8.726602,0.0917388944,0.332659912,0.5345123199999999,0.493869016,-54.148865,40.411377,-114.75372,8.937678183235757,0.8010080017873717,133.16754569211955,18.468629032257656,28.69572580645168
40600,40600.0,2.7015442000000003,-9.444385,0.87966918,0.5365570000000001,-0.0997528076,0.0950286864,-53.582764000000005,41.17737,-117.34008999999999,9.863981797271897,0.5547878495986307,135.40821658675185,18.415096774193138,28.681419354838773
40700,40700.0,2.86147768,-9.1108702,-0.07345885800000003,0.5107788200000001,-0.0083557124,-0.0136291502,-54.179382,41.566466999999996,-118.925476,9.553698746732303,0.5139705636981802,137.13659414828192,18.36156451612862,28.66711290322587
40800,40800.0,3.1369340315789467,-8.92883847368421,0.9666209926315791,0.1246088952631579,0.5212587168421052,0.19776916684210527,-53.996277,41.574096999999995,-120.84503000000001,9.519080309361634,0.5729289542297961,138.73544877545552,18.308032258064106,28.652806451612967
40900,40900.0,3.220722985,-9.17406915,0.5842880335,0.280206293,0.300205991,0.267662045,-53.521730000000005,42.24243,-122.62878400000001,9.747992698930222,0.4934570979555876,140.30971862211277,18.254499999999585,28.638500000000068
41000,41000.0,3.88703615,-9.03395935,1.11058886,0.138947295,0.09508743130000001,0.295891565,-52.456665,42.808533000000004,-123.63128999999999,9.900772115481516,0.3409439468356214,140.9573271156857,18.200967741935067,28.62419354838716
41100,41100.0,2.780258215,-9.1495408,0.6087699894999999,0.015213776100000001,0.453439325,0.20134964149999998,-52.34672570000001,43.552398499999995,-124.92706499999998,9.582822158170432,0.4970018671561297,142.280627538185,18.147435483870552,28.609887096774262
41200,41200.0,5.01494305,-9.6010205,1.3117035,-0.19330596600000002,0.4125389175,0.2097564735,-51.682587,43.57002230000001,-125.6180595,10.911835320954122,0.5027365433222282,142.65112384046327,18.09390322580603,28.595580645161355
41300,41300.0,3.7381751000000003,-11.6244219,-2.334306315,-0.593206778,-0.8155609,-0.3906738235,-52.3906725,43.1804653,-124.53399679999998,12.460499186944533,1.0863097807619948,141.8382703169229,18.040370967741516,28.58127419354845
41400,41400.0,-0.34729309150000004,-10.91711655,-0.36519699299999997,-1.83770145,-0.6156570600000001,-0.64059373,-55.0638581,40.48797585,-116.74568300000001,10.931090765223198,2.0426046956511725,135.28084419951804,17.986838709676995,28.56696774193555
41500,41500.0,2.92851255,-9.9095765,-0.2863006548,-0.89633175,-0.474617005,-0.6718521,-56.385801799999996,37.422180100000006,-111.2775445,10.34366923639906,1.2250806556389575,130.2403075922967,17.933306451612477,28.552661290322646
41600,41600.0,1.5566330000000002,-6.7522199999999994,-1.01892852,0.16040802199999998,-0.34305572,-0.424713135,-57.70263759090909,34.926882772727275,-109.75119545454544,7.0083457597754215,0.5752623271604019,128.82083281374713,17.879774193547963,28.538354838709747
41700,41700.0,3.71440885,-8.6897275,-3.1976547,0.207817075,-0.63280487,-0.119514465,-58.28231750000001,34.359665299999996,-109.98672450000001,9.986030743615393,0.6777954760823929,129.12979839782295,17.82624193548344,28.52404838709684
41800,41800.0,4.776590457894737,-7.722851421052632,-2.295411752631579,0.04835911831578947,-0.032167135263157884,-0.2266026526315789,-58.86718775,33.688278100000005,-109.52308575,9.369077141778924,0.2602819485290156,128.82372875907484,17.772709677418927,28.509741935483934
41900,41900.0,4.4821114,-8.1698845,-3.65763933,0.6969329875,-0.48793640299999996,0.1449958765,-58.76571660000001,33.877106899999994,-110.4622645,10.011787451044023,0.8634696661471852,129.62631039696578,17.719177419354406,28.495435483871034
42000,42000.0,1.1111298,-10.4163061,-0.7775970484999999,0.616126252,0.6516349805,0.513254553,-58.3712002,35.053405700000006,-112.8059405,10.50827667844753,1.038529732769867,131.76180178250962,17.665645161289888,28.481129032258128
42100,42100.0,2.15757598,-7.453182914999998,2.925157125,0.1815032938,1.19954834,0.052687835849999996,-57.46307345,36.0893258,-114.9138665,8.431381953861122,1.2154741253575092,133.45276705628558,17.612112903225373,28.466822580645232
42200,42200.0,4.8204102,-9.640707199999998,0.45638122,0.35865174,0.586920176,0.327252204,-56.985626550000006,37.0471967,-119.0728745,10.793228664373265,0.7674507840277092,137.1065544147786,17.558580645160852,28.452516129032325
42300,42300.0,4.0068573,-10.0211454,0.7537384,0.610269176,-0.108700561,0.090771486,-56.802522499999995,37.24403375,-120.99700925,10.820985786168757,0.6279405142202463,138.7585033081476,17.505048387096338,28.438209677419422
42400,42400.0,1.63061524,-8.815905800000001,-0.04927368199999999,0.37037048200000006,0.13226013039999998,-0.06625671400000001,-57.0966335,37.04826315,-122.26821650000001,8.966560843780927,0.4086379794427775,139.93613503573238,17.451516129031816,28.423903225806516
42500,42500.0,3.3961029000000003,-9.1889256,0.8949951199999999,0.27577819800000003,0.433520516,0.310638432,-56.428451100000004,37.53692585,-124.38858049999999,9.84165329985699,0.6037797081606765,141.65351541539485,17.3979838709673,28.409596774193613
42600,42600.0,3.58212892,-8.9933136,0.33355713200000003,0.23401794399999998,0.30376892,0.39457702200000005,-55.076217299999996,38.3914187,-126.840823,9.687188534122113,0.5503096342762026,143.51270702909662,17.34445161290278,28.395290322580713
42700,42700.0,3.60918582,-9.7237824,1.1071228000000002,0.13580322,0.256042482,0.2475708,-54.1073596,38.78250145,-127.8279875,10.433793852821,0.3838893739960007,144.12388511014186,17.290919354838262,28.380983870967807
42800,42800.0,4.17780768,-9.5513976,0.85908202,-0.10025634679999999,0.42819214,0.145950314,-53.14781205,38.886261100000006,-129.908221,10.466638744597523,0.4654621243016442,145.64678737073882,17.237387096773745,28.36667741935491
42900,42900.0,4.721639473684211,-11.851268210526314,-0.16167811473684213,-0.38216841736842105,-0.3305037647368421,-0.1680153294736842,-53.15021757894736,39.13638442105263,-130.04905473684212,12.76496726153001,0.5383173628257393,145.84018421601962,17.183854838709227,28.352370967742004
43000,43000.0,0.5081611699999999,-9.50644895,-0.753115855,-1.814060195,-1.132466855,-0.9374756,-55.3288265,37.600099,-124.12811299999998,9.596980395306128,2.335243774370391,141.0068383657266,17.13032258064471,28.3380645161291
43100,43100.0,2.4189659000000003,-11.59503395,-0.6590240300000001,-1.428965005,-0.362287139,-0.604106905,-57.0994569,35.6625366,-118.305053,11.868204128608832,1.5940092932198033,136.11866897014949,17.07679032258019,28.323758064516202
43200,43200.0,1.797910305,-6.71134335,0.08449783250000004,-0.13738708375,-0.3617500295,-0.52649612,-58.809509600000005,33.0503842,-116.375882,6.956279235835755,0.6916894983587007,134.51480918251565,17.023258064515673,28.30945161290329
43300,43300.0,2.0786354,-7.154443400000001,-2.014742245,0.466193395,-0.34683532850000004,0.10222549130000001,-58.87908940000001,33.3242799,-116.1730956,7.7268996737573925,0.5918288318685605,134.43750903844295,16.969725806451155,28.295145161290392
43400,43400.0,4.5228058,-8.4989073,-3.72018279,0.481904612,0.17125397,0.20433044,-58.605956799999994,33.764647000000004,-117.562253,10.321851376270832,0.5510163566093432,135.63041782492226,16.916193548386637,28.280838709677486
43500,43500.0,6.0217041,-8.0339584,-4.4968612,0.0216110231,-0.466522217,-0.32521667200000004,-58.442229000000005,33.9251705,-117.7786226,11.013478351043416,0.5854658338900456,135.7874504146468,16.86266129032212,28.266532258064586
43600,43600.0,0.92468565,-13.0361632,-1.818473795,0.82865141,-0.0023834219999999684,0.7647659179999999,-58.21426500000001,34.8103336,-121.1544786,13.299536257088905,1.1496055180551679,138.84914653763113,16.8091290322576,28.252225806451683
43700,43700.0,-0.9041183300000002,-5.89952388,3.49246832,0.162008669,1.38278049,0.024185180800000008,-57.4536129,35.480804,-124.031677,7.047987833588687,1.3952749925295145,141.22218804100496,16.755596774193087,28.23791935483878
43800,43800.0,6.8641068,-10.5990995,0.38431549,0.569148265,0.010285947999999991,0.388829042,-55.4658524,37.0715334,-126.456452,12.635275581447587,0.7070895256883688,142.97550221665864,16.702064516128562,28.22361290322588
43900,43900.0,3.59996945,-9.3871645,0.76570436,0.62422942,-0.157916262,-0.014692687749999999,-55.5627444,36.6075138,-128.483429,10.090376543932447,0.6442980101628257,144.69043468653754,16.648532258064044,28.209306451612967
44000,44000.0,1.370189675,-8.8857495,1.0068626625,0.139373775,0.256153105,0.033611296249999985,-55.65826379999999,36.4624027,-129.97741299999998,9.04972604406846,0.3006165266680124,146.01888915858316,16.59499999999953,28.19500000000007
44100,44100.0,3.12842945,-9.087467,0.76954269,0.32552718750000004,0.35868072500000003,0.284225465,-54.508514,36.7005925,-131.915436,9.642067690506744,0.5619363760842067,147.37638290204438,16.541467741935012,28.18069354838717
44200,44200.0,3.425907175,-8.99109675,1.12657165,0.179584505,0.35042572,0.31272125500000003,-52.958678600000006,36.9845582,-133.78585800000002,9.689087621467925,0.5038809418775702,148.56364355460022,16.487935483870494,28.166387096774262
44300,44300.0,2.571773525,-9.344246,0.754878975,0.090633391,0.3530998225,0.1281547575,-52.0817565,37.629089,-135.19897400000002,9.722053299928584,0.3871489110041727,149.6904584878444,16.434403225805973,28.152080645161362
44400,44400.0,3.7096214,-9.59114825,1.446197525,-0.1628913825,0.6774711600000001,0.2394828775,-50.713958700000006,37.8248593,-136.53686299999998,10.389393852310024,0.7370346463946864,150.48242750422384,16.380870967741462,28.13777419354846
44500,44500.0,4.035831425,-11.86713425,-0.099548325,-0.15224838,-0.341197975,-0.090751645,-49.7708146,38.1904606,-136.811674,12.550642227102411,0.3895109434395183,150.5094066385015,16.32733870967694,28.12346774193556
44600,44600.0,2.06061092,-8.728991800000001,-0.76083068,-1.84026186,-0.67201233,-0.61890868,-51.1566162,37.8648377,-131.96303999999998,9.007338506542057,2.05465636356922,146.50955682811113,16.273806451612426,28.109161290322646
44700,44700.0,3.31925352,-11.4478484,0.377847294,-1.3743103,-0.29639282,-0.6747314520000001,-52.77688085714286,38.12626457142857,-126.13481571428572,11.931424296421126,1.5625894447751452,141.94732297126654,16.220274193547905,28.09485483870975
44800,44800.0,2.0201538,-8.160605,-0.647827126,-0.13796692,-0.29298705399999997,-0.91953126,-54.92965735,36.10763405,-123.452226,8.432754610964402,0.9841239680647278,139.86261240044894,16.166741935483387,28.080548387096854
44900,44900.0,1.4369293399999998,-6.92975768,-1.24493712,0.307092284,-0.41101989200000005,-0.35132140799999995,-56.6564174,34.56329365,-123.20526275,7.1922106706902555,0.624349155953931,139.94332621350176,16.11320967741887,28.066241935483948
45000,45000.0,4.79742428,-8.202508700000001,-3.51224362,0.234869386,-0.36968384,0.23607788600000001,-56.25007595,34.97970575,-122.61268899999999,10.138109866914695,0.4978005503546512,139.36126370840623,16.05967741935435,28.05193548387104
45100,45100.0,5.42854304,-8.882699599999997,-3.32142942,0.6844146720000001,-0.11615600599999999,0.188565062,-55.477982499999996,35.26527365,-123.8064555,10.928030703864604,0.720231128806034,140.17683252587787,16.006145161289833,28.03762903225814
45200,45200.0,1.0445221040000001,-6.81507264,-0.8312225400000002,0.389758304,0.24816894599999995,-0.028323363600000005,-55.0688165,35.105971000000004,-124.99550049999999,7.143735421505713,0.5315724796517212,141.0279605796576,15.952612903225315,28.02332258064523
45300,45300.0,6.01152648,-10.683145,-1.5897064399999996,0.17926635400000002,0.54090271,0.09013366640000003,-53.18252629999999,36.25106835,-126.155699,12.477175803043759,0.8000737989523589,141.62564325527006,15.8990806451608,28.009016129032325
45400,45400.0,1.27795406,-9.4664062,-0.73976442,0.5163147,0.8408782920000001,0.5967743000000001,-51.8130497,37.06886265,-129.85961550000002,9.62294698068006,1.159135949300813,144.6453178872489,15.845548387096287,27.99470967741943
45500,45500.0,3.2378418,-9.598810199999999,1.4269867,0.431097412,0.08347778199999999,0.269515994,-50.3252409,37.661666499999995,-131.9670885,10.237081857320312,0.5203213491306868,146.17244490264125,15.792016129031769,27.980403225806533
45600,45600.0,3.14063724,-9.238721,-0.0995574952,0.44729004,-0.051385497999999995,-0.130587766,-49.780119299999996,37.18185455,-134.563828,9.759538827939526,0.4693793148370732,148.21607801991303,15.738483870967253,27.966096774193627
45700,45700.0,2.59236756,-9.0725584,0.82890928,0.161364744,0.31761474,0.14040527000000005,-49.46914665,36.911773499999995,-135.06912250000002,9.472335946317273,0.3836498952016117,148.5038586092713,15.684951612902735,27.95179032258072
45800,45800.0,3.04798888,-8.9827792,0.17075500600000001,0.19034424,0.3913391080000001,0.380096436,-48.103333,37.25128,-136.55396000000002,9.48964535446841,0.5788005921821994,149.4943895235834,15.63141935483822,27.937483870967817
45900,45900.0,3.49575349,-8.93818825,1.49947277,0.0897842392,0.229409029,0.2353286745,-46.4066316,37.77000415,-137.2785925,9.716073969827002,0.3421755897849137,149.75174582076588,15.577887096773706,27.923177419354914
46000,46000.0,3.46720966,-9.244940025,1.18313526,-0.06323471155,0.513310235,0.2395385725,-45.11566185,37.7587893,-138.7046805,9.94751928306343,0.5704268618197471,150.66577308115836,15.524354838709188,27.908870967742015
46100,46100.0,2.96208956,-12.1871207,-0.281040956,-0.07836685230000001,-0.3157806385,-0.11919326455,-44.364777000000004,38.08982845000001,-138.663021,12.554532492369015,0.3484465672859349,150.4875629455005,15.470822580644672,27.89456451612911
46200,46200.0,2.58230818,-9.581091475,-1.5023727400000002,-1.46459729,-0.1933403025,-0.504928605,-45.1669307,38.9235691,-135.46883,10.038985847048103,1.5615087214664063,148.01023284504038,15.417290322580154,27.8802580645162
46300,46300.0,1.47224042,-11.07824465,-0.770894625,-1.551471725,-0.43184280799999997,-0.376407626,-46.915130600000005,39.44664,-129.000167,11.2044996170894,1.6547894348217065,142.82218841843175,15.363758064515642,27.865951612903306
46400,46400.0,2.450695825,-8.278163000000001,-0.6106002775,-0.373181912,-0.054048919349999995,-0.5657028224999999,-48.50584368421053,39.30977231578947,-125.8273452631579,8.655089379572884,0.6825403821974017,140.46583943501884,15.310225806451125,27.8516451612904
46500,46500.0,1.9925681315789472,-7.944434578947368,-2.123349642105264,0.33071256894736845,-0.4059078852631579,-0.3988318084210526,-49.9728388,37.854919200000005,-124.9008172,8.463027185940643,0.6584744694433616,139.7515639718467,15.256693548386608,27.837338709677496
46600,46600.0,3.3459381400000003,-7.80651265,-2.1401275500000003,0.1630722034,0.06259155199999998,-0.153916928,-50.653381599999996,37.36724880000001,-124.99664399999999,8.759943758214371,0.2436572200423361,139.95086095544121,15.203161290322091,27.823032258064593
46700,46700.0,5.12327577,-9.0152144,-3.5303313999999997,0.47967071299999997,-0.28947448800000003,-0.0529357915,-50.7931514,37.181703000000006,-125.69091599999999,10.95436415715328,0.5631624822992606,140.57254758843598,15.149629032257574,27.808725806451694
46800,46800.0,2.94766696,-7.61532444,-3.54373625,0.098623658,-0.15290221999999998,-0.17586822800000002,-51.4175412,36.638184,-126.13799999999999,8.90423498864296,0.25547012106655,141.05642617303386,15.096096774193061,27.79441935483879
46900,46900.0,5.1510543900000005,-14.572766,-5.5266082700000005,0.5189727789999999,-0.3914245526,0.627020265,-50.10284400000001,37.2061156,-127.78472920000002,16.444980989643675,0.9158543133283426,142.20969480915429,15.042564516128545,27.780112903225884
47000,47000.0,-1.97576748,-7.47060705,0.6529403640000001,0.198117065,0.5864928970000001,0.32406005600000004,-49.2568972,37.248535600000004,-130.172116,7.761161851602638,0.7080058528670468,144.07812158788573,14.989032258064027,27.76580645161298
47100,47100.0,4.5724945,-10.1471999,0.2449691810000001,0.58268583,0.05129852339999999,0.232456971,-47.495422399999995,37.834472,-132.24823,11.142114258410466,0.6358340720851766,145.52272713365156,14.935499999999509,27.751500000000075
47200,47200.0,3.37658993,-9.8674346,-0.48754120100000004,0.621987914,-0.142793271,-0.013198853000000009,-47.130736,37.4032592,-133.68438999999998,10.446877527540265,0.639447212344032,146.60092144102197,14.881967741934993,27.737193548387168
47300,47300.0,2.53108065,-8.873002699999999,1.01877288,0.20163116600000003,0.281617734,0.1822753938,-47.215881599999996,37.183227,-135.20752,9.287105733014467,0.3943421991155654,147.96287846742453,14.82843548387048,27.72288709677427
47400,47400.0,2.86183928,-9.162939100000001,0.555015563,0.31477202200000004,0.239958191,0.363800048,-45.97412,37.069396000000005,-136.83777,9.615665306485496,0.5378125612155629,149.03808732257195,14.774903225805962,27.708580645161373
47500,47500.0,2.78952482,-8.921371699999998,0.6431228729999999,0.111943057,0.33978118700000004,0.27825775,-44.787597999999996,37.236022999999996,-137.60986,9.37116637628087,0.4544153203641158,149.4286582710483,14.721370967741446,27.694274193548466
47600,47600.0,2.81335448,-9.445941099999999,0.86590578,-0.021748351800000003,0.55165403,0.20209503199999998,-43.3087146,37.4572766,-138.10669,9.894173261954954,0.5879851055634266,149.5063980677709,14.667838709676928,27.679967741935567
47700,47700.0,4.3196683700000005,-9.9567459,1.930484,-0.0549789415,0.16166382,0.20891112899999997,-42.004088,37.62176520000001,-138.692326,11.023816534792934,0.2705476130699816,149.7174187951974,14.614306451612412,27.66566129032266
47800,47800.0,2.08515324,-11.7632891,-2.6830169500000003,-0.593907169,-0.494964597,-0.312652585,-42.6596068,37.4691774,-137.521054,12.256852873269544,0.8356292010412751,148.7812890593009,14.560774193547898,27.65135483870976
47900,47900.0,-0.5597228854999999,-10.19867245,-0.822369382,-1.940181745,-0.542470535,-0.6391517605,-44.761046,38.2711806,-131.89361200000002,10.248581148219015,2.113601686910811,144.44463569741947,14.507241935483382,27.637048387096854
48000,48000.0,2.87542035,-9.26738995,0.22959289100000002,-1.04359898,-0.1822555495,-0.5742759715000001,-46.23466465,38.084107,-126.055677,9.70638345655581,1.2057092562657157,139.563992846529,14.453709677418866,27.62274193548395
48100,48100.0,1.64485706,-7.178985635,-0.8315216034999999,0.28664016935,-0.5197845475,-0.5403938285000001,-48.342896,36.9537354,-124.51538000000001,7.415046425802924,0.8049774011638342,138.5883121794171,14.40017741935435,27.608435483871048
48200,48200.0,3.1896065,-8.54488275,-3.160898605,0.2671966575,-0.658581547,-0.277817537,-49.31274439999999,36.0864256,-124.210513,9.65366456413999,0.7631672593489272,138.42778542600786,14.346645161289835,27.594129032258145
48300,48300.0,3.32247998,-8.073096885,-2.20340118,0.112636569,-0.11742782619999999,-0.07344055130000003,-49.836119200000006,35.4641734,-124.14856200000001,9.004246673529392,0.1798958544394882,138.39881584329112,14.293112903225314,27.57982258064524
48400,48400.0,3.8766173999999998,-8.0564575,-3.9254913,0.41021729999999995,-0.20137024,-0.1003418,-49.95575,35.1843264,-124.80896200000001,9.76443300256931,0.4678639584368384,138.96337545386328,14.239580645160801,27.56551612903234
48500,48500.0,1.0047760000000001,-10.351303,-1.0715941999999998,0.65948486,0.25242615,0.6421509,-49.5779418,35.3057864,-126.992186,10.45501615194633,0.9544616389063796,140.82455174788558,14.186048387096285,27.551209677419443
48600,48600.0,1.8559113,-6.574447599999999,1.4231566999999998,0.24510193,1.4497833,-0.058792114000000006,-48.2836912,36.174926,-128.518372,6.97804721905551,1.4715308646838514,141.9750560648266,14.132516129031771,27.536903225806533
48700,48700.0,5.463973999999999,-10.621841,1.2040863000000002,0.35801697,0.5166168,0.57611084,-46.5048206,36.3101196,-131.540528,12.005346388997056,0.8526269810507562,144.16669965236017,14.078983870967253,27.52259677419363
48800,48800.0,2.3814392000000004,-9.655792,1.4207611,0.660553,0.023391724,0.08181763,-46.3168348,35.9753424,-133.00689599999998,10.046100433194656,0.6660116839361822,145.36271586655414,14.025451612902735,27.508290322580727
48900,48900.0,1.5997313999999998,-8.431152,0.799469,0.27705383,0.22579956,-0.06944275,-46.3818344,35.52765,-134.71649599999998,8.618736292590171,0.3640969122931764,146.8401484761962,13.97191935483822,27.49398387096782
49000,49000.0,2.3203888,-9.464249,0.4056244,0.32925415,0.37919617,0.28848267,-45.529478999999995,35.6787112,-135.703428,9.752986438575713,0.5791547992766876,147.51725333797532,13.918387096773705,27.47967741935492
49100,49100.0,3.029068,-9.05365,0.49899292,0.1641388,0.5016937,0.40353394,-44.0753174,35.848389000000005,-137.37671,9.559959477180543,0.6644379241261396,148.66136096852702,13.864854838709187,27.465370967742015
49200,49200.0,2.5777588,-9.466644,0.5349121,0.01499939,0.50382996,0.09246826,-42.76166571428571,36.08601952380953,-138.29091761904763,9.825900468071099,0.5124646225852096,149.18173786867422,13.811322580644672,27.45106451612911
49300,49300.0,4.7385254,-10.146606,1.9606628000000001,-0.18313599,0.33764648,0.12976074,-41.2756346,36.7077638,-138.69293199999998,11.368880107600088,0.4054402371928792,149.28788512589824,13.757790322580155,27.436758064516212
49400,49400.0,1.6212768999999998,-11.568756,-2.6505737000000003,-0.72535706,-0.62535095,-0.44548035,-42.2710425,37.10060175,-137.24518,11.97873929564966,1.056247801130903,148.32252807400516,13.70425806451564,27.42245161290331
49500,49500.0,0.02350463734999999,-10.36757865,1.19498675,-1.911898785,-0.192854307,-0.48202972200000005,-44.245147499999995,38.435364,-131.035235,10.439081054992027,1.9814192308873049,143.54541100750498,13.650725806451126,27.408145161290413
49600,49600.0,2.1168175,-9.718812875,-0.58935396,-0.8666656699999999,-0.09102173,-0.5915847735,-46.0220335,38.329315,-126.1150375,9.966801221357674,1.0546103869897148,139.61449485603293,13.597193548386608,27.393838709677507
49700,49700.0,1.634147655,-6.814952165,-0.196099854,0.188855746,-0.22812194600000002,-0.525057985,-47.96256925,37.081909,-125.19111625,7.013825668027857,0.6045111823474318,139.09832258192984,13.543661290322092,27.379532258064604
49800,49800.0,2.489833865,-8.47945425,-3.31359562,0.08520812999999999,-0.480577848,-0.016976166100000002,-48.716353000000005,36.8957515,-124.8451225,9.439072942734828,0.4886176883445528,138.99968404917806,13.490129032257574,27.365225806451697
49900,49900.0,3.70693055,-8.3952358,-2.513562765,0.1789947475,-0.0348815912,0.166880799,-48.52638275,37.32338,-125.25978125,9.516447623942828,0.2508469355765266,139.4198426576933,13.43659677419306,27.350919354838794
50000,50000.0,4.57968136,-8.35345712,-3.86587981,0.244403841,-0.4467132485000001,-0.1116874725,-48.474121000000004,37.29667675,-124.90196499999999,10.282225886013563,0.5223254965616773,139.0729680403567,13.383064516128545,27.336612903225888
50100,50100.0,0.09521789749999998,-13.27534765,-1.53732609,0.6050018225,0.351063539,0.7585884275,-47.707978499999996,37.859803,-126.835788,13.398348285135505,1.0401611145518936,140.70118588400024,13.329532258064027,27.322306451612988
50200,50200.0,-0.55852049,-7.50040435,1.78947446,0.243179322,1.13713074,0.20390319399999998,-46.4166262,38.147125,-129.368437,7.733681745707508,1.187220585148039,142.63927557621554,13.275999999999511,27.308000000000085
50300,50300.0,4.95209056,-9.51812435,0.55764923,0.53868563,0.0776107807,0.0779815671,-45.0207529,38.7037651,-130.652163,10.752977490282602,0.5519175508396799,143.50927385806278,13.222467741934993,27.293693548387186
50400,50400.0,2.96765902,-9.477896099999999,0.180206303,0.6483077899999999,-0.313233944,0.06041107174,-45.082252526315784,38.370635,-132.17130631578948,9.933644708461966,0.7235508544464871,144.82403270015874,13.16893548387048,27.279387096774283
50500,50500.0,1.50851742,-8.7814194,0.567832947,0.17159118299999998,0.375671388,0.032612610400000006,-45.060883200000006,37.7322387,-133.59482,8.930641003707162,0.4154442854969728,145.95132621824422,13.115403225805965,27.265080645161376
50600,50600.0,3.0757584,-9.148576,0.376412965,0.255433652,0.356718445,0.335253905,-44.29382329999999,37.8810122,-134.290768,9.66031962836261,0.5522716566913337,146.39310406809392,13.061870967741447,27.250774193548473
50700,50700.0,2.61236576,-9.4179259,0.076300047,0.181080628,0.38505249,0.42483062299999996,-42.6838685,38.040313700000006,-135.986176,9.776029625662515,0.6018291607991415,147.51703661036038,13.008338709676929,27.236467741935574
50800,50800.0,2.63439175,-9.2087949,0.220315547,0.0467514037,0.506919862,0.175457764,-41.1880489,38.5943607,-136.888732,9.580904798124939,0.5391047859633233,148.0693667177387,12.954806451612413,27.22216129032267
50900,50900.0,4.5050309,-11.3944004,1.0555312799999998,-0.2922767625,0.24230041300000002,0.037612915,-40.074311,38.681335100000005,-136.66915899999998,12.298883185254244,0.39249902042096224,147.5827374149163,12.9012741935479,27.207854838709764
51000,51000.0,0.821610246,-11.06339865,-1.387039225,-1.391571075,-0.894065085,-0.649858853,-41.9319161,38.9144899,-133.31710700000002,11.18305593745844,1.7824263189318574,145.0730154283827,12.847741935483382,27.193548387096858
51100,51100.0,1.6979553,-10.76646305,0.7615837160000001,-1.5506156999999998,-0.206112674,-0.27205276100000003,-43.167877,38.9434815,-127.555691,10.931476036804867,1.5905632381229131,140.18120245338184,12.794209677418866,27.17924193548396
51200,51200.0,2.374137085,-8.955958950000003,-0.88604432,-0.43288727,-0.4339187635,-0.598452745,-44.696503,38.58551,-123.7216208,9.311734592239468,0.8626324632725608,137.09056295138228,12.74067741935435,27.16493548387105
51300,51300.0,1.2829162900000002,-7.910652049999999,-1.312521355,0.42710191049999996,-0.7278823675,-0.5896736175,-46.74880990000001,37.1025086,-123.88076799999999,8.12274816098655,1.032092058979125,137.50827637659359,12.687145161289836,27.15062903225815
51400,51400.0,2.995072895,-9.01941435,-2.906463645,0.15534362699999998,-0.40643539549999996,-0.361706546,-48.0210869,36.0581969,-123.8020322,9.939260839049172,0.5667844444193056,137.59795501930014,12.63361290322532,27.136322580645253
51500,51500.0,4.01475528,-7.61976006,-2.80164488,0.287918088,-0.6596527000000001,-0.13634033,-48.6845388,35.46035820000001,-122.6045232,9.06220179185998,0.7339921721238685,136.5997931181513,12.580080645160804,27.122016129032346
51600,51600.0,4.34708254,-8.3806398,-3.10547484,0.5819397000000001,-0.75169374,-0.25969848,-49.1160581,35.1345823,-123.20648249999999,9.945938642072075,0.9854840044898674,137.2104957621701,12.526548387096286,27.107709677419443
51700,51700.0,-0.17509154,-11.5919862,-1.079028316,0.89064637,0.0472595208,0.57994387,-49.003601200000006,34.9772641,-124.24331780000001,11.700101130831678,1.0740046288131986,138.06240746030542,12.47301612903177,27.09340322580654
51800,51800.0,0.6243286,-6.381479,4.52484114,0.063153076,1.34368898,0.0931121816,-47.8057864,35.5641175,-125.8554085,7.914607157081895,1.3569610730668402,139.24746747854022,12.419483870967252,27.07909677419364
51900,51900.0,5.38136908,-10.486099000000001,0.25765991599999993,0.5567932320000001,0.1467468264,0.5015411599999999,-46.2269586,36.1015318,-127.4937432,11.79524088289006,0.7784615647548759,140.33859047688156,12.365951612902734,27.064790322580727
52000,52000.0,2.8669830000000003,-10.038620300000002,0.94790348,0.7089141859999999,-0.268057254,0.1227294926,-45.74303905263158,36.16975552631579,-129.61722842105266,10.485174101113762,0.773586275358246,142.1315675005757,12.312419354838221,27.050483870967827
52100,52100.0,1.94210055,-8.476944249999999,0.8048515249999999,0.1713333125,0.12112808375,-0.14081954875,-46.134719700000005,35.54283165000001,-130.77750899999998,8.74330458282491,0.25558073973942336,143.1589007008483,12.258887096773705,27.03617741935493
52200,52200.0,2.208457875,-9.20807675,0.5142555225,0.3420372025,0.196495055,0.23096085,-45.7171629,35.72891205,-131.77437,9.484548730033802,0.45874840095432295,143.98352143800872,12.205354838709187,27.021870967742025
52300,52300.0,2.646900175,-9.141330624999998,0.28651428,0.3364410375,0.2412338225,0.40805435,-44.42405605,35.92849775,-133.49365550000002,9.52188335062877,0.5814407378970035,145.20666660094682,12.151822580644671,27.007564516129122
52400,52400.0,3.086231225,-9.63514325,1.1217918,0.144161225,0.23751068,0.2266960175,-43.2348636,36.360170000000004,-134.2884825,10.180171196020241,0.3600112859923114,145.68704108772218,12.098290322580153,26.99325806451622
52500,52500.0,2.8800354,-9.60850525,1.12418745,-0.0009727474999999992,0.36241151,0.1396141025,-42.679519899999995,36.459504200000005,-135.11314850000002,10.094263211484297,0.3897174009130509,146.3094955849681,12.04475806451564,26.97895161290332
52600,52600.0,3.5369415,-12.272651625,-0.786693565,-0.3876647875,-0.1204223625,-0.195682525,-42.134094,36.6708365,-135.285877,12.806270396801601,0.4528591191247765,146.36361633269274,11.991225806451125,26.964645161290413
52700,52700.0,0.13358307750000006,-9.899399,-0.822002425,-1.97384265,-0.738006595,-0.794361115,-44.65736380000001,37.01423625,-130.46447750000002,9.969306886244981,2.2534524503771443,142.77794940379272,11.937693548386607,26.95033870967751
52800,52800.0,2.8592026,-11.149887300000001,-0.372378538,-1.40244292,-0.382360845,-0.41096953799999997,-46.05064355,37.3096471,-124.59198049999999,11.517624124243204,1.5123512072325451,137.97054211982578,11.884161290322092,26.936032258064607
52900,52900.0,1.19176181,-7.09136349,-0.09512329,-0.1031356819,-0.1363906855,-0.48670806,-47.6264946,36.1718765,-122.07900925,7.1927810599179125,0.5339064394678726,135.94120295896653,11.830629032257574,26.9217258064517
53000,53000.0,1.8709991000000001,-8.578997900000001,-2.16742709,0.446864318,-0.388334656,-0.133042907,-48.75991825,35.74485725,-122.576749,9.044966311484798,0.6131782460774945,136.67588186904598,11.77709677419306,26.9074193548388
53100,53100.0,3.66880038,-8.401347300000001,-2.63250277,0.30741273,0.363851928,-0.0985290535,-48.89633185,35.46714725000001,-123.68347150000001,9.540606494316703,0.4867482729073482,137.64583744721514,11.723564516128544,26.893112903225894
53200,53200.0,4.9493408,-9.4504804,-3.65530087,0.401164246,-0.5044448810000001,-0.14997711,-48.93447805,35.30090355,-124.6828456,11.278240926327884,0.6668270108143025,138.51577783425222,11.670032258064026,26.878806451613
53300,53300.0,-0.030116271,-7.877615400000001,-0.3411346289999999,0.477748102,0.385685726,0.215936278,-49.5171349,34.848174900000004,-125.34873875,7.906759413555662,0.669523940423305,139.207313877222,11.616499999999512,26.864500000000092
53400,53400.0,5.59361423,-11.7630479,-3.929321298,0.17564086899999998,0.3851501315,0.1639556925,-48.0705262,35.60729985000001,-126.8049635,13.694129305283115,0.5379069489761521,140.20766767087198,11.562967741934994,26.850193548387193
53500,53500.0,1.19038848,-8.799685949999997,-0.343405151,0.4743454000000001,0.35218734799999996,0.6942428595,-46.64726305,36.2682341,-129.13604999999998,8.94914409577042,0.9150301831401464,142.01242386028576,11.50943548387048,26.835887096774286
53600,53600.0,1.488225595,-9.6280176,1.364379125,0.46763457950000004,-0.202392579,0.1195343045,-45.5330659,36.52626145,-131.29570049999998,9.838149206882754,0.527746439046744,143.68738386097996,11.455903225805965,26.821580645161387
53700,53700.0,2.63121255,-9.6216675,-0.19479141015,0.5186012295,-0.03034973128,-0.1043922445,-45.124815999999996,36.0806282,-132.917784,9.97790456276089,0.5332228912109039,144.93171386026717,11.402370967741447,26.80727419354848
53800,53800.0,1.652880845,-8.93962615,1.47157749,0.188053897,0.2581771845,0.1225128155,-45.0323484,35.9719848,-134.002382,9.213768112223306,0.3502846373930567,145.87173462566352,11.348838709676931,26.792967741935573
53900,53900.0,2.630018635,-9.5690614,-0.10906753400000001,0.281048595,0.3290718075,0.252952578,-44.277038,35.84045379999999,-135.26611200000002,9.926809703122766,0.5037529441328886,146.77186810902063,11.295306451612413,26.778661290322674
54000,54000.0,3.076055945,-9.032457475,1.09671329,0.109652708,0.177222441,0.276872254,-42.96112,36.3687136,-136.657408,9.60491706185452,0.34661341269232115,147.79594732958572,11.241774193547899,26.76435483870977
54100,54100.0,2.1082611,-9.3021606,0.80928956,0.0868011484,0.308889768,0.15595703,-41.965332200000006,36.1938468,-137.03368799999998,9.574642566968476,0.3574862814610038,147.8151916256957,11.188241935483381,26.75004838709687
54200,54200.0,3.61972048,-9.799206800000002,1.30248718,-0.121563722,0.510647572,0.228829956,-40.5670162,36.662902200000005,-137.94799999999998,10.53073840830142,0.5734470244898264,148.3898348142379,11.134709677418867,26.735741935483965
54300,54300.0,3.17248224,-11.299408,0.02445984000000001,-0.33205871600000003,-0.502212522,-0.30572204,-40.29419,37.151183200000006,-137.457276,11.773742360304134,0.6752491923759252,147.9809338849431,11.08117741935435,26.721435483871065
54400,54400.0,0.27885436296,-10.024017500000001,-0.69978026,-1.62720638,-0.56569518,-0.59355468,-41.9949338,37.8454582,-133.497924,10.059645725885618,1.8227757838056036,144.97586191810274,11.027645161289835,26.707129032258162
54500,54500.0,1.9516814999999998,-11.563006800000002,-0.5611602680000001,-1.377298,-0.149176022,-0.45315856,-43.7289424,38.8940424,-128.302304,11.748338985288695,1.4579805958490322,141.0201970042159,10.97411290322532,26.692822580645256
54600,54600.0,1.98519896,-8.113922200000001,-0.555169684,-0.332919308,-0.210534668,-0.58823244,-45.391846,38.7783814,-125.634155,8.384238662962467,0.7126028313296254,139.0977874265887,10.920580645160804,26.678516129032353
54700,54700.0,1.18074344,-7.7792145999999995,-1.99025572,0.03864746,-0.621734618,-0.335336308,-46.966248,38.4045402,-124.621278,8.12271097255005,0.7121595245998151,138.60451700429846,10.867048387096288,26.664209677419446
54800,54800.0,3.509164485,-7.799740524999999,-2.27570264,0.047071839503699996,0.198148347,-0.18732147100000002,-47.293396,38.2717902,-124.00237800000001,8.855809288564986,0.28358657287228684,138.12320587793948,10.81351612903177,26.64990322580655
54900,54900.0,4.44356228,-8.803091499999999,-3.412233725,0.6569824165,-0.36606903700000004,0.09241866929999999,-47.361755,38.7500002,-125.06378400000001,10.439868465502046,0.7585154949806321,139.23263472881337,10.759983870967254,26.635596774193644
55000,55000.0,2.62361069,-8.2362657,-2.93902052,0.26336745850000004,-0.22017516875,-0.14220504679999998,-47.777404,38.3410644,-126.38183559999999,9.160428180954565,0.3850861757513251,140.44641628177914,10.706451612902738,26.621290322580737
55100,55100.0,4.902778535,-12.052801400000002,-4.517038735,0.398019406,-0.14822387650000002,0.3973556485000001,-46.481934,39.2489622,-127.844848,13.786707569254865,0.5829949920848487,141.58182865314268,10.652919354838222,26.60698387096784
55200,55200.0,-0.665006263,-8.32909715,2.0813842775,0.413949585,0.69935989,0.27964248399999997,-45.815124,39.879150200000005,-129.88891999999998,8.70173221657841,0.8943466322547239,143.38977258128102,10.599387096773707,26.59267741935493
55300,55300.0,3.94629219,-10.9967239,-0.458329017,0.497032169,-0.2425003055,0.43122482149999997,-44.110412200000006,40.36987240000001,-131.86493000000002,11.6936116724021,0.7015061523901969,144.7889128287662,10.54585483870919,26.578370967742032
55400,55400.0,2.3368972210526318,-9.310208263157897,-0.06748481421052642,0.5223444789473684,0.026751869315789475,-0.11642857663157895,-43.8296516,40.717162,-133.73199200000002,9.625218709697721,0.5362224033889578,146.50363714666787,10.492322580644672,26.564064516129125
55500,55500.0,2.4011917,-9.057838,1.1292725000000001,0.16094207500000002,0.300361635,0.174499515,-43.34668584210525,40.602513263157896,-135.40617684210522,9.439088630894961,0.3870137040569768,147.8592824043119,10.438790322580155,26.549758064516226
55600,55600.0,2.2162398999999997,-9.4822085,0.6187057499999999,0.28664398,0.229522705,0.381690985,-41.8925477,40.72753895,-136.4690425,9.75921068686647,0.530083606093573,148.4507341039336,10.385258064515641,26.535451612903323
55700,55700.0,3.2367630000000003,-9.481018,0.92815398,0.262680055,0.0116806028,0.405662535,-40.1797488,41.229935100000006,-137.7687075,10.062990804066391,0.4840356048402417,149.3135689866972,10.331725806451123,26.52114516129042
55800,55800.0,2.69208525,-9.461258,0.6749725200000001,0.060272217,0.52407075,0.194740295,-38.7412258,41.688232,-138.4605415,9.863667165057493,0.5630268797569897,149.70032758887857,10.278193548386607,26.50683870967752
55900,55900.0,3.49234775,-11.6609345,0.80007173,-0.13253020999999998,0.062278747,0.0365524292,-37.502899400000004,42.58613575,-138.7335205,12.20406208097922,0.19251603526261896,149.89009292518216,10.224661290322091,26.49253225806461
56000,56000.0,1.249925310526316,-10.548884684210527,-1.2110917263157894,-1.1315042721052633,-0.7314846610526315,-0.5349113073684211,-39.3626408,43.79570045,-135.5950185,10.69268485843327,1.450843777750917,147.83072054263818,10.171129032257577,26.47822580645171
56100,56100.0,-0.8154144300000001,-10.8714445,0.06923675500000001,-1.5083313,-0.167289735,-0.516860965,-42.60711575,44.78057935,-128.94935800000002,10.925747838779923,1.6043479965591283,142.99915371335283,10.11759677419306,26.46391935483881
56200,56200.0,2.13004305,-9.221237,-0.43115234,-0.69126893,0.11127472,-0.561599725,-44.186096500000005,44.8219301,-124.3495193,9.47597322430099,0.9020321390366148,139.3714991302992,10.064064516128543,26.44961290322591
56300,56300.0,1.08318327,-7.3747102,-1.60730745,0.10395050000000002,-0.64452362,-0.202072145,-45.9531403,44.22172555,-123.14956699999999,7.633066204359608,0.6846923887583911,138.6835085917913,10.010532258064027,26.435306451613002
56400,56400.0,3.3870087,-9.81500225,-3.35926055,0.22166443,-0.22694397,-0.126434325,-46.43852235,44.23995865,-122.49763349999999,10.934900367667932,0.344572962879675,138.27295169206408,9.95699999999951,26.4210000000001
56500,56500.0,2.83178481,-7.82338343,-2.28396759,0.019155883775,0.0186531065,-0.331132504,-47.60681125,43.86779779999999,-122.34260649999999,8.627972580405723,0.3436928922174605,138.4147009979123,9.903467741934996,26.4066935483872
56600,56600.0,3.4023873142857144,-8.0605665,-2.877517771428572,0.36091396,-0.2235979357142857,-0.16957964142857146,-48.5285175,43.518829499999995,-122.49008025,9.211372920845102,0.4573271870068283,138.75439949756955,9.84993548387048,26.392387096774286
56700,56700.0,2.0802490000000002,-9.3421482,-1.96080626,0.508432004,0.21343688800000002,0.34728393799999996,-48.24790935,43.76258915,-123.5167697,9.774865292185133,0.6567008188629213,139.64093930996668,9.796403225805964,26.37808064516139
56800,56800.0,4.45481882,-11.540026800000001,-3.72461848,0.2617218,0.39858092,0.298281864,-46.5267939,44.60815375,-126.45873825,12.949200386848354,0.5925101405989924,141.93826944370545,9.742870967741448,26.36377419354849
56900,56900.0,0.05738832000000005,-8.402896,0.527722166,0.45857847799999996,0.377917482,0.342169188,-45.48446625,44.73434475,-128.406602,8.467397906430996,0.7047780318441867,143.38176955490513,9.689338709676932,26.349467741935587
57000,57000.0,3.13776856,-10.069030999999999,0.362045286,0.74747924,-0.03221740640000001,0.137857056,-44.0699015,45.17646815,-130.76370400000002,10.578813021688422,0.7696839193751701,145.19747858614812,9.635806451612417,26.33516129032268
57100,57100.0,1.4189682,-9.0727995,0.44392395,0.226989745,0.41275025,-0.07956695750000001,-44.4134528,44.504319200000005,-132.6357285,9.206964547769182,0.4853846266897507,146.78373841440467,9.582274193547901,26.320854838709774
57200,57200.0,2.78605958,-9.597128199999998,0.744403072,0.360360718,0.36023559,0.251412966,-43.4667216,44.60952755,-134.1495535,10.031320046811732,0.5683994516775028,147.90371503796396,9.528741935483383,26.30654838709688
57300,57300.0,2.58387303,-9.02312465,0.8395721429999999,0.107572936,0.29898071400000004,0.298178103,-41.90223705,44.69161915,-135.506746,9.423895917678513,0.4360149842347126,148.7118893719014,9.475209677418867,26.292241935483972
57400,57400.0,2.328765875,-9.91526425,0.9368362475,0.13991165,0.24576569,0.2812919625,-40.3839115,45.0630185,-136.00769,10.230696048237217,0.4019524649668915,148.86137338553962,9.421677419354351,26.27793548387107
57500,57500.0,3.5556631684210527,-10.243436947368421,1.0495388368421052,-0.0607420252631579,0.4286434736842105,0.20942848842105266,-38.825988,45.1515195,-136.69510000000002,10.894508780656924,0.4814844892447934,149.10323946391892,9.368145161289837,26.263629032258173
57600,57600.0,2.804013745,-12.7264109,-1.789983329,-0.595866417,-0.54200057,-0.3236137395,-38.505325,45.79437265,-135.57899700000002,13.17755826172892,0.8681165073109478,148.1945485776811,9.31461290322532,26.249322580645266
57700,57700.0,-0.965295378,-9.7025952,-0.03191681249999978,-1.92293242,-0.44382935,-0.635639952,-40.7149506,46.41090425,-128.572768,9.761459138985137,2.0734777533856352,142.6291393154593,9.261080645160805,26.23501612903236
57800,57800.0,1.85011062,-10.60000415,-0.518542458,-1.165091,-0.2412673955,-0.6288681165,-42.73315425,45.97213755,-121.8112937,10.773078781828975,1.345959746330078,137.03152915711297,9.207548387096287,26.220709677419453
57900,57900.0,1.57692791,-7.52111968,-0.547035219,-0.006253051880000028,-0.387058261,-0.501249692,-44.56947385,45.0678255,-119.39933729999998,7.705636921959562,0.6356341728338951,135.18060917675956,9.154016129031769,26.206403225806557
58000,58000.0,1.4081879,-7.807464599999999,-2.4398804,0.24722289999999997,-0.4644928,0.07009888,-45.2177425,45.01869125,-119.25819225,8.300151384659422,0.5308357340208969,135.25475447398634,9.100483870967253,26.19209677419365
58100,58100.0,4.278839,-8.908797999999999,-3.2658843999999996,0.25361633,0.14483643,0.08074951,-44.59533715,45.3788755,-120.06721499999999,10.408705294458498,0.3030170253683015,135.8828668096727,9.046951612902738,26.17779032258075
58200,58200.0,4.254898000000001,-8.265961,-4.404327400000001,0.12365723,-0.62428284,-0.33149720000000005,-44.42627035,45.40725689999999,-120.4079425,10.287291581865256,0.7175726921069241,136.1382629702295,8.993419354838222,26.163483870967845
58300,58300.0,0.049484253,-11.326935,-1.4893951,0.8853302,0.12565613,0.61125183,-44.0554795,45.8076479,-122.57278525,11.424543883649097,1.0831564179364703,138.07066490482032,8.939887096773706,26.149177419354938
58400,58400.0,0.21229553,-6.8066864,2.8417206000000004,0.07998657,1.287857,0.009384155,-42.62908915,46.25785875,-124.48394725,7.379120889948022,1.2903726462516278,139.47505357747903,8.88635483870919,26.13487096774204
58500,58500.0,4.948916435,-10.45276415,1.108554045,0.6010604829999999,-0.157007594,0.368592836,-41.3729855,46.8685912,-126.1712648,11.619647406694162,0.7229147749516308,140.81060973348482,8.832822580644674,26.120564516129136
58600,58600.0,2.293446345,-9.9330437,0.12448272699999999,0.7128616050000001,-0.271095272,0.099029541,-40.41114785,46.695098200000004,-128.9385215,10.196565996347411,0.7702138909755918,142.9638155657512,8.779290322580158,26.106258064516233
58700,58700.0,1.33857725,-8.607608800000001,0.997887422,0.170635985,0.2386779815,-0.00990142825,-40.313721,46.6499325,-130.623625,8.769215410218752,0.2944289041040738,144.4435788239045,8.725758064515643,26.091951612903326
58800,58800.0,2.3311637650000003,-9.26858585,0.749075342,0.38975601,0.2066162135,0.34947585950000004,-39.05639600000001,46.7926025,-132.658385,9.586648293845943,0.5628201839030225,145.99054503071588,8.672225806451126,26.07764516129043
58900,58900.0,2.570393405,-9.50004915,0.6085243079999999,0.1378227245,0.276338959,0.2868286125,-37.4549865,47.215271,-133.912655,9.86096647225599,0.4216157327979509,146.84971475447196,8.618693548386611,26.063338709677524
59000,59000.0,1.67964021,-9.43174795,0.9956779495,0.03113784785,0.3539482125,0.148446654,-35.749053499999995,47.489929,-134.129335,9.631762858000243,0.3851771328119453,146.71061882616257,8.565161290322093,26.049032258064624
59100,59100.0,2.926660925,-10.47078055,1.514494365,-0.10159378074999999,0.2159431502,0.173170474,-34.5848085,48.148346,-134.81750499999998,10.977295209624081,0.2969682553442698,147.27576046395282,8.511629032257577,26.034725806451718
59200,59200.0,1.6287817631578947,-11.440220736842106,-1.568205947368421,-0.5200380031578947,-0.33857566263157896,-0.2252060747368421,-34.5870965,49.375916,-133.88824499999998,11.664157137161071,0.6608801758494485,146.83465336057287,8.458096774193061,26.02041935483881
59300,59300.0,-1.31808934,-9.5333234,-0.60844118,-1.83323058,-0.507740781,-0.7032790950000001,-36.753846,50.638581,-127.233125,9.667917906553386,2.0300550968522977,141.78777038377615,8.404564516128545,26.006112903225908
59400,59400.0,3.78587952,-11.30886405,-0.281752013,-0.882058705,0.367787165,-0.61806032,-38.92749894736842,50.99278489473684,-120.30534894736843,11.939843437670538,1.1436745468396472,136.34192989570127,8.351032258064029,25.991806451613012
59500,59500.0,0.795761134,-6.60366665,-1.038442987,0.203230285,-0.51658629,-0.47711944700000003,-42.66525275,50.526657,-118.59207250000001,6.735506059783747,0.7350050570492863,135.78425366285444,8.297499999999513,25.977500000000106
59600,59600.0,2.29848324,-9.0695707,-2.70337074,0.396580503,-0.25155334700000004,0.159796143,-43.3941645,51.18553120000001,-119.82093805,9.740785311393278,0.4978088115531938,137.33213144400662,8.243967741934997,25.963193548387203
59700,59700.0,4.35989381,-9.4485704,-2.74071806,-0.0197235105,0.13706359536329998,-0.0460037228,-43.03573580000001,51.54365535,-119.98374775,10.763040887452052,0.15361154066501265,137.4952588060095,8.19043548387048,25.948887096774303
59800,59800.0,2.47875824,-6.92986767,-2.71725468,0.1182266236,-0.387484735,-0.34524841500000003,-44.25659265,51.44416795,-119.30595225,7.857774063683765,0.5350879700091653,137.2556674215764,8.136903225805963,25.9345806451614
59900,59900.0,0.3992293568421053,-10.696198789473684,-1.8305687947368419,0.8863902684210526,0.36882661368421055,0.6767417526315791,-43.6347195,52.71072395,-121.79450875,10.880610365887444,1.1750776064792765,139.70181500794502,8.083370967741448,25.92027419354849
60000,60000.0,0.992496455,-7.29008395,1.2074455199999998,0.0345451362,1.14144822,-0.08441162199999999,-42.4638375,53.41774,-123.78296,7.525411810561766,1.1452221034163277,141.3466117531975,8.029838709676932,25.90596774193559
60100,60100.0,3.45039219,-10.79028695,-0.7529312100000001,0.6132614355,0.09231872449999999,0.39554748450000005,-41.24778755,53.62335125,-126.88636699999999,11.360393310043886,0.7360194691413954,143.79523747843263,7.976306451612417,25.89166129032269
60200,60200.0,1.869797545,-9.9364439,1.25184857,0.522489931,-0.01368331905,0.1673080435,-40.293731799999996,53.975601100000006,-128.67767800000001,10.194773487313737,0.5494324333066756,145.2410203213314,7.922774193547901,25.877354838709785
60300,60300.0,2.315538025,-8.677581300000002,0.011715694100000007,0.17862701949999998,0.3631134075,-0.08057480160000001,-40.29365525,53.816986,-131.369476,8.985138528653637,0.41448348167673105,147.57313990790144,7.869241935483384,25.863048387096878
60400,60400.0,2.57764204,-9.7460439,0.7218307490000001,0.224066163,0.2978538525,0.1031822235,-40.03257765,53.80248929999999,-132.653041,10.108559787707826,0.3869576824540093,148.64104928925232,7.815709677418868,25.84874193548398
60500,60500.0,2.3705974105263157,-9.378561736842109,0.3835641957894737,0.25586258947368423,0.2029700005263158,0.34880950526315785,-38.5915374,53.8433845,-134.2206525,9.682298645351349,0.4778978964601371,149.67887560858196,7.762177419354353,25.83443548387108
60600,60600.0,2.66730044,-9.6612946,0.77480164,0.21590881399999998,0.19852295,0.21242981,-37.50121975,54.229735999999995,-135.346296,10.05657551829441,0.3633880018542541,150.55174466160128,7.7086451612898355,25.820129032258173
60700,60700.0,3.44518126,-9.588507,0.71878664,-0.03293457,0.5238586199999999,0.157876584,-36.4908599,54.7209932,-136.36054850000002,10.216813266518363,0.549296340432361,151.39413764983462,7.6551129032253185,25.80582258064527
60800,60800.0,3.87206726,-12.1297212,0.20738524000000005,-0.335256956,-0.242926024,-0.12824707119999998,-36.21421805,55.10429415,-135.54847949999998,12.741122859724907,0.4373707443173828,150.7364802104523,7.601580645160802,25.791516129032374
60900,60900.0,0.7541046299999999,-10.2284818,-1.99599906,-1.81448366,-0.6607147,-0.79383242,-40.22308325,55.971298499999996,-130.3520215,10.477931356072338,2.088234701829319,147.45474151553455,7.548048387096287,25.777209677419467
61000,61000.0,2.35797118,-11.3650054,0.1915802,-1.53090514,-0.372250374,-0.5961120480000001,-44.45205615,55.27321,-120.941848,11.613928968314251,1.6854301144421575,140.20903787807646,7.494516129031771,25.76290322580656
61100,61100.0,0.589373776,-6.8718109,-0.03131714399999996,-0.35422057799999995,-0.238449092,-0.753134152,-49.3478391,53.1471243,-116.2883759,6.909827548482151,0.8790323968764148,137.0514531904255,7.440983870967255,25.748596774193654
61200,61200.0,0.9398231525,-7.150260899999999,-1.1090087725,0.500762935,-0.27114868,-0.062522889,-51.6336058,52.2808836,-116.47186200000002,7.304469110905428,0.5776450159738585,137.71355896359142,7.387451612902738,25.73429032258075
61300,61300.0,4.167812325,-8.876170875,-3.9874383,0.43178941,0.10728836,0.0908813475,-51.764221,52.9699704,-118.01391399999999,10.587048845907717,0.4573202657985387,139.32937429980896,7.333919354838223,25.71998387096785
61400,61400.0,4.65502925,-9.238899,-3.58670805,0.18731308,-0.37821579,-0.165058135,-52.3760984,53.0538938,-119.0182504,10.950148064853725,0.4542824283855029,140.43978649322236,7.280387096773706,25.70567741935495
61500,61500.0,0.1928367625,-8.444324499999999,-0.5750999475,0.8397826999999999,0.2223281875,0.3808937,-53.888856000000004,52.4652096,-121.001282,8.466203210757804,0.9522587580899292,142.4710183256647,7.2268548387091895,25.691370967742053
61600,61600.0,4.5200575,-10.662548,-3.3272362,0.2762641925,0.5768051275,0.11537933574999999,-52.7246092,53.59100279999999,-124.53796200000001,12.137436458468098,0.6735206714576376,145.47040644132764,7.173322580644674,25.677064516129146
61700,61700.0,1.68143845,-8.26355725,-0.001991272499999995,0.5660094999999999,0.415412905,0.46824265,-52.549132799999995,53.5488892,-128.019404,8.445780059117661,0.8514582812643998,148.3843868431554,7.119790322580157,25.66275806451624
61800,61800.0,2.329666125,-10.246853,0.29220199750000003,0.51860426,-0.3838043225,0.2517356875,-52.00103780000001,53.7658688,-130.87982,10.513582034546376,0.6967988312085142,150.74621420194097,7.066258064515643,25.648451612903337
61900,61900.0,1.89936524,-9.278697099999999,-0.29276732799999994,0.402969354,0.0757980331,-0.232536315,-52.7935794,52.9504404,-133.772276,9.493232034491443,0.4792366771146221,153.25164781301226,7.012725806451126,25.634145161290437
62000,62000.0,2.63127136,-9.440546800000002,0.6404891970000001,0.200354002,0.388459776,0.143397519,-53.5620118,52.280578799999994,-135.647584,9.821408867759068,0.4600063141731968,154.92740130457062,6.959193548386611,25.61983870967753
62100,62100.0,2.3202667000000003,-9.40990145,0.07115020700000001,0.172547915,0.440982056,0.338014228,-52.5378422,52.45239300000001,-137.245178,9.693292209769133,0.5822186899530483,156.03783052452266,6.905661290322094,25.605532258064628
62200,62200.0,3.10197295,-9.2184876,0.983341962,0.10533599999999999,0.281288146,0.379032899,-51.0498044,53.2101438,-139.220884,9.776428194574873,0.4844547913677946,157.54339339607859,6.852129032257577,25.591225806451725
62300,62300.0,3.2343704,-9.5921065,0.6651519920000001,0.0538879395,0.43991546299999995,0.25780487,-49.7662348,53.4320076,-139.83917,10.145797436678155,0.5137269398354438,157.75508078905287,6.7985967741930615,25.576919354838818
62400,62400.0,3.5194061100000003,-11.9177062,-0.15701446100000005,-0.307879638,-0.12424927050000001,-0.245108038,-50.5703734,54.28802500000001,-139.610904,12.446463443364122,0.4161949784943938,158.10078638757244,6.7450645161285445,25.562612903225922
62500,62500.0,0.4515228284210526,-10.207590473684212,-1.183685294736842,-1.5805431263157894,-0.4086022589473684,-0.5277878789473684,-54.77386479999999,54.5507812,-133.237918,10.30652897415824,1.7172303821408612,154.04251376968898,6.691532258064028,25.548306451613016
62600,62600.0,1.84921037,-11.06741485,-0.694812781,-1.312584675,-0.0547927838,-0.38748550950000005,-58.1036374,54.2507936,-125.061646,11.248192519997637,1.3701785291074613,148.1883320362663,6.637999999999512,25.534000000000116
62700,62700.0,1.348280345,-8.25571655,0.12891464400000002,-0.3264122015,-0.286862186,-0.5343330390000001,-61.288146,52.99743639999999,-119.960631,8.387639475974593,0.711073835393853,144.76141235113158,6.584467741934997,25.519693548387213
62800,62800.0,0.3599525445,-7.69972905,-1.878687255,0.1389991745,-0.64132841,-0.3297927865,-63.59750842105264,51.558887052631576,-117.11457852631578,7.935142048948759,0.7345194059107195,142.89437660289698,6.530935483870481,25.505387096774307
62900,62900.0,3.399327075,-8.155764505,-2.830201735,0.007971190949999998,-0.09639282414999999,-0.124036408,-64.63501,50.8625033,-115.6727615,9.278554873222118,0.17116304121106252,141.9327083362524,6.477403225805965,25.491080645161404
63000,63000.0,3.35821532,-8.826736499999997,-3.000067905,0.4496841425,-0.262145997,0.093963621,-64.5830565,51.27815255,-116.3766491,9.918657670249775,0.5334693501330106,142.63247447600142,6.423870967741449,25.476774193548497
63100,63100.0,3.02644042,-7.98056348,-2.89287414,0.35311279999999995,-0.323669428,-0.211547848,-65.256425,51.34269715,-116.36657525,9.020604499780589,0.5319912437237593,142.95335243203408,6.370338709676932,25.4624677419356
63200,63200.0,1.85686648,-12.0722504,-3.0377228,0.6880310000000001,-0.271044922,0.5445709400000001,-64.732745,52.50778245,-118.171005,12.631287209304473,0.93097347182833,144.60946904017794,6.3168064516124165,25.44816129032269
63300,63300.0,-0.33143311200000003,-7.60802302,2.00518496,0.153698732,1.075238068,0.11271362119999999,-64.77790850000001,53.56994695,-120.66513025,7.917335411911469,1.1001924059599886,147.05811710635294,6.263274193547901,25.433854838709788
63400,63400.0,3.44565428,-10.556970199999999,0.854299916,0.510568236,0.35553894,0.40395202799999996,-63.13026405,55.46081555,-124.171447,11.13809159772476,0.7469118659232273,149.93367817399974,6.209741935483384,25.419548387096892
63500,63500.0,2.69436036,-10.3012696,0.5471160860000001,0.688891604,-0.26635742,0.132955934,-62.48642099999999,56.03774975,-126.125795,10.662075680980193,0.7602688642451834,151.50090871444058,6.156209677418867,25.405241935483986
63600,63600.0,1.36772764,-8.7929166,0.311532591,0.12792663599999998,0.189151,-0.1067321772,-63.4004223,55.74546855,-128.3164965,8.913707719982867,0.26073731339272843,153.5979651798647,6.102677419354353,25.39093548387109
63700,63700.0,2.7901306,-9.409424000000001,0.665148936,0.41809387200000003,0.0545043946,0.23607483,-62.93312140000001,56.217422,-129.784855,9.842098341285505,0.4838303458758083,154.80669253646087,6.049145161289836,25.376629032258183
63800,63800.0,1.787552655,-9.552292699999999,0.03379745399999999,0.3131217955,0.200122075,0.392990878,-61.78237975,56.84539815,-131.858977,9.719462365930436,0.5417368483523703,156.31818955608685,5.995612903225321,25.36232258064528
63900,63900.0,3.097959895,-9.20130615,1.385206585,0.11385727150000001,0.231488799,0.2346900935,-60.0695807,57.91656405,-133.410337,9.809381852314742,0.3507661974799757,157.35659168019856,5.942080645160804,25.348016129032374
64000,64000.0,2.65677111,-9.51824025,0.8459121709999999,0.012495421599999995,0.58143234,0.124269864,-59.48753370000001,57.96218855,-134.87236049999998,9.919894763126617,0.5957010457721302,158.39495498424532,5.888548387096287,25.333709677419467
64100,64100.0,2.91953664,-12.78872105,0.05187988199999999,-0.16464920099999994,-0.0164459245,-0.12132263019999999,-59.0523517,57.928237800000005,-134.10278449999998,13.121966349511736,0.22851472087834274,157.56429459661058,5.835016129031772,25.31940322580657
64200,64200.0,1.1113762085,-9.67679795,-0.7877670525,-1.6098442,-0.605274199,-0.6856521535,-61.4648446,56.76490845,-125.941772,9.786757177292664,1.8515526381475071,151.20211381227668,5.7814838709672545,25.305096774193665
