Unnamed: 0,st,ax,ay,az,gx,gy,gz,mx,my,mz,AccTotal,GyrTotal,MagTotal,lat,lng
12000,12000.0,1.6404266,-6.682189999999999,-1.7072601000000003,0.48478699999999997,-0.3153534,0.039215087999999995,-49.3366243,37.1504975,-119.55352849999998,7.0892453530075805,0.5796585420636944,134.56340048640558,33.19,32.63
12100,12100.0,5.474746700000001,-9.275116,-4.1876526,0.5582885999999999,-0.22161865,0.10951233,-48.9601134,37.5708783,-120.801927,11.55582374999306,0.6105685361528315,135.6531713668656,33.138140625,32.616140625
12200,12200.0,0.79408264,-9.226028,-1.0500488000000001,0.53804016,0.38238525,0.27676392,-48.77548275,37.98278925,-122.04567109999999,9.31948294586748,0.715754120214585,136.8096721383842,33.08628125,32.60228125
12300,12300.0,3.966633555,-7.71930233,-0.719900515,0.0188880925,0.7697204750000001,-0.2135726945,-48.0400836,38.67492645,-123.35884075,8.747024546554199,0.7995551605431461,137.9167094863075,33.034421875,32.588421874999995
12400,12400.0,3.2635169900000003,-9.67278435,-0.7887283285,0.527122494,0.435221867,0.371406565,-47.42790125,38.81401085,-125.51773325,10.239483065951736,0.7784380386529312,139.68066228023818,32.9825625,32.57456249999999
12500,12500.0,2.58967358,-9.21490055,2.090659375,0.337731175,0.397191621,0.203478237,-46.9322198,39.2991645,-127.88024920000001,9.800377775303376,0.5610982675275831,141.7763858419317,32.930703125,32.56070312499999
12600,12600.0,2.38735966,-9.24626625,0.5372383115,0.38103409,0.34845352049999995,-0.10913086235,-46.5392306,39.0106956,-129.591369,9.564978752190086,0.5278626351487444,143.11451045819598,32.87884375,32.546843749999994
12700,12700.0,3.20216675,-8.984687699999999,0.039907836899999986,0.598229985,0.0648345944,0.28229675,-46.222686700000004,38.9552314,-131.3939635,9.539525734089262,0.6660078312523071,144.63216687713242,32.826984375,32.532984374999984
12800,12800.0,3.48899233,-9.259913699999998,0.154832458,0.23551635399999998,0.405711362,0.259829715,-45.29304475,39.24163925,-133.2953655,9.898247935788026,0.537411566909641,146.147413464493,32.775125,32.51912499999998
12900,12900.0,3.55352323,-8.853729600000003,1.1107193000000002,0.153919983,0.307292175,0.40299378399999997,-43.67576625,39.720535299999995,-134.35935849999998,9.60506558004018,0.5296983249906629,146.75763981030482,32.723265625,32.50526562499998
13000,13000.0,3.81652067,-9.470353999999999,1.53999935,-0.047532653700000004,0.54303132,0.194418338,-42.185973600000004,40.2505495,-135.3334845,10.325995678397954,0.5792255450861801,147.36009727898116,32.671406250000004,32.491406249999976
13100,13100.0,4.37987975,-10.7609478,1.5231124900000002,-0.17706756199999998,0.036178588399999996,0.0440093995,-41.6117861,40.6855773,-135.9665685,11.71845723687882,0.1940890742591128,147.89796569064168,32.619546875000005,32.477546874999966
13200,13200.0,1.58811954,-10.4179871,-1.86360933,-0.804083254,-0.24632721100000002,-0.215600588,-42.586135,41.2843322,-134.09278500000002,10.705257474585824,0.8681679351096161,146.6251747013249,32.567687500000005,32.46368749999996
13300,13300.0,0.8108459440000001,-10.5848589,0.84914244,-1.53932644,-0.568785093,-0.667486585,-45.11985725,41.82975735,-127.6493845,10.65035852151194,1.7732888455185565,141.70366194449326,32.51582812500001,32.44982812499997
13400,13400.0,2.16345212,-9.7186355,-0.695953371,-0.947044366,-0.39493408399999996,-0.61570892,-47.075426,41.1543278,-121.99378975,9.982366019944255,1.1991996334246369,137.0853262991454,32.46396875000001,32.435968749999965
13500,13500.0,2.78336942,-7.497709685,-0.5196823205000001,-0.06974105650000001,-0.6779716490000001,-0.6136856024999999,-49.204436285714294,39.29043828571429,-119.89702333333334,8.025957319498898,0.9189344725385429,135.4258970320869,32.41210937500001,32.42210937499996
13600,13600.0,2.9761039350000003,-8.124995799999999,-3.08680036,-0.00603256221,-0.411186226,-0.01596527125,-49.93270955,39.05235285,-119.252168,9.19171473792207,0.41155304998808057,135.0536021914208,32.36025000000001,32.40824999999996
13700,13700.0,3.522931665,-7.730973759999999,-2.17335438,0.3932258625,-0.179965975,-0.06353073205,-49.99916155,38.80126975,-119.15680125,8.772055720911041,0.4377327925140415,134.92147376117308,32.30839062500001,32.394390624999964
13800,13800.0,4.756008875,-8.688469525,-3.2270431200000003,0.306410218,-0.4158157300000001,-0.265508274,-50.3617093,39.0864575,-119.95765549999999,10.421419441791453,0.5821523098053963,135.8452679650811,32.25653125000001,32.380531249999954
13900,13900.0,0.0338066108,-9.9867885,-1.95583801,0.696186835,0.298976135,0.485558329,-50.094299799999995,39.202576,-120.909118,10.179036506255366,0.900725185369184,136.62120291737673,32.20467187500001,32.366671874999945
14000,14000.0,3.413224065,-7.61311965,-0.693852225,-0.13179549999999998,1.111614985,-0.155519101,-48.839416799999995,40.03540080000001,-122.62481799999999,8.558395811690035,1.1306617475812604,137.93109961791708,32.15281250000001,32.35281249999995
14100,14100.0,3.96017837,-10.4155315,-0.808413675,0.5530120909999999,0.48849107,0.7159675725,-47.9034424,40.29052720000001,-125.9439064,11.189456066050218,1.0286465446633728,140.64140380867298,32.10095312500001,32.33895312499995
14200,14200.0,1.96304931,-9.7778935,0.801328261,0.601486964,-0.12526397690000002,0.02137298575,-46.5093998,40.7440186,-127.527162,10.01037922439071,0.6154984055647025,141.72674361718813,32.04909375000001,32.32509374999995
14300,14300.0,2.60948337,-8.73665795,0.5365181055,0.178950497,0.354794325,-0.3318252565,-47.3938,39.980164200000004,-129.30114799999998,9.137243706122698,0.5179034137820654,143.399374137366,31.99723437500001,32.31123437499994
14400,14400.0,3.21037142,-9.48460915,0.48480757399999996,0.2571960485,0.2384162925,0.19729538100000002,-47.1255492,39.8516836,-130.422672,10.024943724867313,0.4024786113640889,144.28813166126878,31.94537500000001,32.297374999999946
14500,14500.0,3.54526368,-9.0457398,-0.141931152,0.264273076,0.267343144,0.29167175,-45.8071888,40.1516712,-131.681828,9.717191318606023,0.476265746876269,145.08820240194882,31.89351562500001,32.283515624999936
14600,14600.0,3.7044739,-9.4319308,1.5725525,0.059103394,0.19490662,0.360925296,-44.445266499999995,40.71724015,-132.899402,10.254865567765297,0.4147681163941547,145.92990459838,31.84165625000001,32.269656249999926
14700,14700.0,3.38197332,-9.3727906,0.200674438,0.0731628424,0.394961544,0.105252076,-43.14094585,41.04141225,-133.9912425,9.967040945886735,0.4165759245024844,146.62607728866288,31.78979687500001,32.25579687499993
14800,14800.0,4.5501097999999995,-10.1920959,0.82915346,-0.197195432,0.288223262,0.19217834399999997,-41.93962085,41.5843201,-134.247285,11.192565268345907,0.4077622646660666,146.66511389390766,31.737937500000008,32.24193749999993
14900,14900.0,2.8111938000000003,-10.635733,-1.60527346,-1.0038147,-0.7702270520000001,-0.3826294,-42.3798364,42.3869327,-131.96380200000002,11.119036980841225,1.3235099274805286,144.93920929863663,31.686078125000016,32.228078124999925
15000,15000.0,0.2082275416,-11.6858334,0.029495244000000007,-1.8400543000000003,-0.454061894,-0.275463872,-44.35234095,42.7939599,-123.8826737,11.698704158796088,1.918714507613269,138.36763195460122,31.634218750000013,32.21421874999992
15100,15100.0,2.78701168,-9.8193114,-0.6605224599999999,-0.75327146,-0.5646331800000001,-0.58226926,-45.61157245,41.8842312,-118.88854950000001,10.230287701928427,1.1133189294117127,134.0495631209603,31.582359375000014,32.20035937499993
15200,15200.0,2.31021505,-7.950214499999999,-1.81499865,-0.08753204349999999,-0.672756175,-0.5576057475,-47.69622735,40.5722807,-116.86614820000001,8.477940550762952,0.8783594598309878,132.58495488263432,31.530500000000014,32.186499999999924
15300,15300.0,1.6559906000000002,-7.340888974999999,-2.6541748,0.143096925,-0.1843299875,-0.124309537,-48.97666965,39.9367526,-116.0872665,7.987935221060404,0.2765113484953181,132.1739508528599,31.47864062500002,32.172640624999914
15400,15400.0,3.108375525,-7.667999225,-2.402179725,0.4192771925,-0.14278412,0.1364173875,-48.61000135,40.2545162,-116.49566499999999,8.616301919846054,0.4641761062921688,132.49440580556993,31.42678125000002,32.15878124999991
15500,15500.0,4.748703,-9.67733775,-4.09218605,0.4632072475,-0.08553314000000001,-0.218582155,-48.45024095,40.9165952,-117.7359,11.53206513172852,0.5262613488725536,133.72861394703318,31.37492187500002,32.14492187499991
15600,15600.0,0.3619346725,-9.8138085,-1.533088675,0.5074195925,0.22365951399999998,0.34281539,-48.93188470000001,41.2127691,-118.74145449999999,9.954915725227439,0.6601089558182734,134.87988457867058,31.32306250000002,32.131062499999906
15700,15700.0,4.4769668,-8.208789675,-2.3279533050000003,0.07625198250000001,0.8098221000000001,-0.2771759075,-48.2358554,41.55403115,-119.7107705,9.730513405561654,0.8603720773294589,135.5883962991382,31.271203125000017,32.117203124999904
15800,15800.0,2.295998810526316,-8.605495263157895,-0.9315386157894736,0.6305019894736842,0.3978665,0.3721289357894737,-48.3177944,41.7564385,-122.61627225,8.959243993626377,0.8343192569094733,138.2499023866987,31.219343750000018,32.1033437499999
15900,15900.0,3.60068204,-9.4822127,1.80191801,0.6424453729999999,-0.153550718,0.31116791,-46.98944,42.17880325,-124.65057549999999,10.30393525218036,0.7312734995549227,139.73134922354228,31.167484375000022,32.0894843749999
16000,16000.0,2.27788395,-9.92932285,-0.19448546549999995,0.7140335109999999,0.0547073372,-0.08095550650000001,-47.1569061,42.2013094,-127.3574855,10.197632311584425,0.7264029571879985,142.21363161102326,31.115625000000023,32.075624999999896
16100,16100.0,2.38982238,-9.399611,1.085575875,-0.06234130960000001,0.8018859859999999,0.098655701,-47.06893865,41.8965915,-129.410785,9.77146049738768,0.8118526779317425,143.9374060797919,31.063765625000023,32.06176562499989
16200,16200.0,3.01529848,-8.783099499999999,0.4290832558,0.17031402899999998,0.60599365,0.13593597200000002,-46.00151045,42.0408625,-130.299451,9.300609012907564,0.6443108129242302,144.43537202438117,31.011906250000024,32.04790624999989
16300,16300.0,3.66652222,-9.405952800000001,1.42782132,0.165092467,0.172216796,0.17950592399999998,-45.0812527,42.47451775,-132.05162199999998,10.196110857330817,0.29910738347423943,145.85623030682342,30.960046875000025,32.03404687499989
16400,16400.0,2.7530197000000003,-9.024681,0.9583252,0.0128723145,0.340315246,0.175035095,-44.499207,42.7047735,-132.480625,9.48468272721965,0.3829467209369058,146.1336375083651,30.908187500000025,32.020187499999885
16500,16500.0,2.94233854,-9.202748099999999,0.93803098,-0.0206260683,0.6574989450000001,0.276393127,-43.3792115,42.747497,-132.913975,9.708976817339435,0.7139152223764114,146.20276602058436,30.856328125000022,32.00632812499988
16600,16600.0,5.11765279,-10.75796045,1.36760866,-0.2917388885,0.23916015399999999,0.12410964875,-42.074802285714284,43.45477904761905,-133.0564214285714,11.994311791265796,0.4151393326266039,146.15963466654975,30.804468750000023,31.992468749999887
16700,16700.0,2.171167735,-9.68571825,-0.558222224,-1.51205214,-0.7993560784999999,-0.39675063899999996,-43.457794,43.6294565,-128.70559500000002,9.962075229410155,1.75736099474909,142.6802090039854,30.752609375000034,31.978609374999884
16800,16800.0,1.738899995,-10.6398056,0.20827865250000005,-1.3106659,-0.65400695,-0.408681488,-45.075226,42.993927,-122.023775,10.788709971916349,1.5215299031588254,137.00468747109934,30.700750000000035,31.964749999999885
16900,16900.0,2.0723457400000003,-8.28505015,0.061699669999999984,-0.7893295290000001,-0.14832534449999998,-0.53629762,-46.6056815,41.235352000000006,-118.3494575,8.569951567451692,0.970933684908434,133.7130188898955,30.648890625000032,31.95089062499989
17000,17000.0,1.482714095,-7.964467625,-0.86054915,0.0996322625,-0.825894945,-0.444529715,-48.145294,39.8132315,-116.03775,8.15935211927653,0.944800077824228,131.78744831392518,30.597031250000033,31.93703124999989
17100,17100.0,3.2356872400000003,-8.3791934,-2.89837036,0.2612854,-0.114453124,-0.148272706,-48.828888,39.34631400000001,-116.484835,9.441022569435306,0.3216794816446921,132.29180095221395,30.545171875000033,31.92317187499989
17200,17200.0,4.02003176,-8.820687800000002,-3.1923889,0.3546051,-0.203298948,-0.0140533449,-49.0806575,39.5881655,-117.5193775,10.214646105550642,0.4144704194894657,133.36793872890905,30.493312500000034,31.909312499999892
17300,17300.0,3.69059136,-7.583367799999999,-3.6472839,0.131762694,-0.49773253799999995,-0.47338867,-49.95575,38.83667,-117.635345,9.188946746647463,0.7007068491037407,133.57394598466422,30.441453125000034,31.89545312499989
17400,17400.0,2.2140839,-11.0827302,-1.53775334,1.0719635,-0.06928405400000001,0.6758087140000001,-49.28512600000001,39.4546505,-119.18487549999999,11.411718773985374,1.2818870076028763,134.8735869952959,30.389593750000035,31.88159374999989
17500,17500.0,1.217379768,-7.263980099999999,0.7750457399999999,-0.151181026,0.77100218,-0.123983766,-48.462677,39.2204285,-120.87860249999999,7.843592337982344,0.7998773590091524,136.0092286106454,30.337734375000032,31.86773437499989
17600,17600.0,4.17301636,-9.9775662,0.202593992,0.54976196,0.428411864,0.487045304,-47.109221999999995,39.5057685,-122.84012,10.827606940682754,0.8532826512681096,137.36751316988978,30.285875000000033,31.853874999999892
17700,17700.0,2.943531805,-9.2405736,1.215995775,0.571183755,-0.2280075055,0.04490432765,-46.83075,39.75067,-125.0076295,9.775311506268684,0.6235366471778352,139.28442324200094,30.234015625000033,31.84001562499989
17800,17800.0,1.99507447,-9.004270374999997,0.2490364165,0.20973358000000006,0.362893675,-0.2309921255,-47.176362,39.1426085,-126.3381975,9.237321470209931,0.4826979150205878,140.42485096254893,30.182156250000034,31.82615624999989
17900,17900.0,3.420519295,-9.3606463,1.032780447,0.1667495685,0.395549009,0.1607612605,-46.8917845,39.0052795,-127.85873500000001,10.021779686905859,0.4590548547539385,141.66203562847468,30.130296875000035,31.81229687499989
18000,18000.0,2.74500044,-9.5008284,-0.17125625600000002,0.096068575,0.5082504290000001,0.189784239,-46.11969000000001,39.149475,-129.40063500000002,9.89627316294094,0.5528439296699348,142.84351831160362,30.07843750000003,31.798437499999896
18100,18100.0,3.81298678,-9.09453055,0.97472382,0.0284233094,0.3024963385,0.10110397499999997,-45.242309000000006,39.239502,-129.58831999999998,9.913210767286364,0.3227285966654524,142.75768838200287,30.02657812500004,31.784578124999896
18200,18200.0,2.65431667,-9.30695725,0.363303373,-0.0044418332499999965,0.408115389,0.216150665,-44.60235535,39.2900075,-131.1724095,9.687828863609868,0.4631091287173788,144.01170777628872,29.974718750000036,31.770718749999894
18300,18300.0,4.03265228,-9.22309985,0.851541907,-0.193413544,0.4339416525,0.2262710585,-43.24012775,39.86137405,-131.465226,10.105855549066275,0.5294256629865761,144.02006294126903,29.922859375000037,31.756859374999895
18400,18400.0,3.4510779368421067,-12.089683842105265,-0.6749147315789474,-0.4654870263157895,-0.588352402631579,-0.17720433263157895,-43.21197515,40.18348705,-130.46135149999998,12.668780108661215,0.7738286209525278,143.1857849481931,29.871000000000038,31.7429999999999
18500,18500.0,-0.40361786,-9.198494,-0.04508972,-1.8396225,-0.27700805500000003,-0.48063659,-44.951706,39.5997622,-124.62135275,9.217278243710826,1.9265822864077848,138.27314263572705,29.81914062500004,31.7291406249999
18600,18600.0,3.37264255,-10.930099499999999,-0.29647827,-1.0753021,-0.1118927,-0.59249115,-46.5685275,38.38218685,-120.0239557,11.443898028704414,1.2349004983337273,134.34154780646622,29.76728125000004,31.7152812499999
18700,18700.0,2.34133145,-7.484252899999999,-0.70588685,-0.1442565925,-0.5316085749999999,-0.38636017,-48.13240070000001,37.0219417,-117.593309,7.877539582872306,0.6765697799645278,132.34641981437434,29.71542187500004,31.701421874999898
18800,18800.0,2.20726015,-8.206695700000001,-2.80799105,0.274391175,-0.579544075,-0.16212463500000002,-48.7997436,36.370164,-117.1274545,8.954148608384521,0.6615358895078673,131.996446445392,29.663562500000037,31.687562499999906
18900,18900.0,2.96562955,-8.121704,-2.20166015,0.17691803,0.126190185,-0.0934143085,-49.365309499999995,36.28265435,-117.93830975,8.92401671002832,0.24207271256042476,132.9015057630451,29.611703125000037,31.673703124999903
19000,19000.0,5.1970215,-9.0422745,-4.07453155,0.2978363,-0.26369477,-0.1770401,-49.45098775,36.1865239,-117.63030800000001,11.198701087984462,0.4403207151864129,132.63400717732728,29.559843750000038,31.659843749999904
19100,19100.0,2.62007978,-6.9481848500000005,-1.927342205,0.36674957,-0.3045997565,0.0827255225,-49.76806600000001,36.0419467,-117.65739369999999,7.67352011900598,0.4959737717923725,132.7373210240843,29.50798437500004,31.645984374999905
19200,19200.0,3.508510565,-13.0841081,-3.20041119,0.952379625,0.11069335285,0.4945610055,-48.48823575,37.183456299999996,-120.62393375,13.922518040283933,1.0896354683676128,135.21797212708532,29.456125000000046,31.632124999999906
19300,19300.0,0.4223800685,-7.881084435,2.002254485,0.010957336700000014,0.6276649485,-0.04617156939999999,-48.58642585,37.072143100000005,-120.92193675,8.185215617035498,0.6430802468454093,135.48862019093082,29.404265625000047,31.61826562499991
19400,19400.0,3.45721353,-10.0792587,0.340319827,0.248297123,0.7716392550000001,0.2686210605,-47.81898495,37.513963,-124.37652450000002,10.677253354201437,0.855975145527728,138.43242568753413,29.352406250000048,31.604406249999908
19500,19500.0,4.22360078,-10.2609163,0.9945976275,0.4397201575,-0.180872348,0.10366134689999999,-47.452622399999996,37.5345615,-125.34377975,11.142910400634825,0.4991034957037857,139.1821081648711,29.300546875000048,31.59054687499991
19600,19600.0,1.889965035,-8.738027025000001,-0.17168044850000003,0.434401711,0.058969877675000004,-0.19184036350000003,-47.7108001,36.90597515,-127.499467,8.943358603588589,0.4828946643455046,141.0480690432738,29.24868750000005,31.57668749999991
19700,19700.0,2.493901765,-9.4181022,0.6346221875,0.2220382675,0.22393494100000003,0.26275863400000005,-47.5553902,36.88552885,-128.420638,9.76403349722808,0.4121447878212897,141.82399163650737,29.196828125000053,31.56282812499991
19800,19800.0,3.37023928,-9.3926694,0.13938598600000002,0.151574704,0.57157592,0.39224243,-46.06018085,37.63206515,-130.0615685,9.980274076839732,0.7098464947430757,143.01681002915018,29.144968750000054,31.548968749999908
19900,19900.0,4.17589424,-9.761855800000001,0.5195831399999999,-0.0350616454,0.235379032,0.13827820000000002,-45.03501825,37.63900775,-131.0020475,10.632495331792075,0.28070835498719543,143.54929225535122,29.09310937500005,31.53510937499991
20000,20000.0,3.54765012,-9.5949736,0.56603394,-0.07319946520000001,0.36491394,0.125067138,-44.641112799999995,38.135985999999995,-131.41571000000002,10.25117745191437,0.39717705962216304,143.93515250711357,29.04125000000005,31.521249999999913
20100,20100.0,3.70279238,-10.6129946,0.09724120999999986,-0.25131226,-0.566552724,-0.023849487600000014,-44.420165999999995,37.9803468,-130.717166,11.260097512950844,0.6241281599250132,143.1875787033413,28.989390625000052,31.507390624999914
20200,20200.0,1.04308166,-10.1501924,-1.09243164,-1.61207578,-0.58338318,-0.550091542,-46.13433920000001,37.9714964,-126.3909912,10.291102512769658,1.8005498034811334,139.80329836657322,28.937531250000053,31.493531249999915
20300,20300.0,2.43051452,-11.5991606,-0.98349612,-1.43034364,-0.27637024,-0.362176516,-47.5607304,37.028197600000006,-120.808714,11.910301927804106,1.5013839895884975,135.01083708910326,28.885671875000053,31.479671874999923
20400,20400.0,1.661261,-7.8318818,0.07809753400000002,-0.15224914500000006,-0.5294738840000001,-0.581628416,-49.158325,35.3799444,-118.585508,8.009618349141276,0.822756085564504,133.15736652336813,28.833812500000054,31.465812499999924
20500,20500.0,0.74571532,-7.8018431449999985,-1.55989762,0.333567047,-0.38252487799999996,-0.1599365275,-50.245056,34.7961432,-118.060916,7.991591397054,0.5334752932471221,132.94263158813482,28.78195312500005,31.451953124999925
20600,20600.0,4.152787,-9.23243555,-3.67709273,0.322920227,-0.1004959095,0.0860298175,-49.994811799999994,35.1370232,-118.267518,10.773002738835196,0.3498592415211792,133.12148459317336,28.73009375000005,31.438093749999922
20700,20700.0,4.0775504850000015,-8.7868689,-2.74610367,0.1146049519,-0.40143889899999996,-0.15882567949999998,-49.9554448,34.8910528,-118.48693600000001,10.069891947997847,0.44724630443938096,133.23708478450754,28.678234375000052,31.424234374999923
20800,20800.0,1.565492205,-7.248656355,-2.08249671,0.47449873,0.02105331099999999,0.03643722650000003,-50.3829956,34.496459200000004,-118.4963996,7.726236776219848,0.4912876332137457,133.30376586198514,28.626375000000053,31.410374999999924
20900,20900.0,4.8856537850000015,-14.788596425,-5.8169731900000015,0.507691192,-0.042595670500000016,0.422592165,-49.0234378,35.75286900000001,-121.819152,16.685401478652402,0.7018225770717736,136.09364480309878,28.574515625000053,31.396515624999925
21000,21000.0,-0.8059593310000001,-7.471320315,3.1661354,0.28733749690000004,0.6359252795,0.240708925,-48.994752000000005,35.8551028,-123.51348999999999,8.217104645848064,0.7814282093997302,137.62898974522983,28.522656250000054,31.382656249999922
21100,21100.0,3.2939849799999994,-9.7158862,1.190319852,0.41127624100000004,0.385578914,0.16033019880000002,-47.605896,36.2365728,-126.0519416,10.341806221581098,0.6021502292289761,139.52965117110662,28.47079687500005,31.368796874999923
21200,21200.0,3.19463201,-10.2102797,0.595478821,0.6162338350000001,0.08837280051999999,-0.055496214400000014,-47.7325436,36.093445200000005,-127.830504,10.715342943531613,0.63004489073126,141.14450419449776,28.41893750000005,31.354937499999924
21300,21300.0,1.74960324,-8.695352,0.841482541,0.101718141,0.383450324,-0.18235931,-48.2632448,35.23284800000001,-129.453734,8.915320384898648,0.4383688152907603,142.57995763493503,28.367078125000052,31.341078124999925
21400,21400.0,2.66623381,-9.2146637,0.521374515,0.25692442800000004,0.399649054,0.207943728,-47.6046754,35.1568604,-130.301516,9.608426130420831,0.5186360617358218,143.11081631912737,28.315218750000053,31.32721874999993
21500,21500.0,3.26849522,-9.0720841,0.632951354,0.17819824,0.34020538100000003,0.32757568400000003,-46.502992,35.498047,-132.00073,9.665870570330961,0.5048165253656143,144.3847710780394,28.263359375000054,31.31335937499993
21600,21600.0,2.54652402,-9.5773819,0.7263213980000001,0.1003326417,0.179879764,0.107179261,-45.68847720000001,35.836791999999996,-132.67181599999998,9.942493631719184,0.23389389107759154,144.82280260540668,28.211500000000054,31.299499999999927
21700,21700.0,3.44865567,-9.3671721,1.271359242,-0.162683103,0.64774781,0.13956451,-44.9313352,35.930176,-133.366696,10.065336801834524,0.6823560996015027,145.24632445465886,28.15964062500006,31.285640624999928
21800,21800.0,3.93611152,-10.073694999999999,1.65144043,-0.182394405,-0.01026611249999998,0.1033416735,-43.8489515,36.04804975,-133.529585,10.941280041625292,0.24099137794810754,145.09425431658389,28.107781250000055,31.27178124999993
21900,21900.0,1.55220792,-10.5267975,-1.62274779,-1.28217166,-0.6757446309999999,-0.327883912,-45.03273,36.79855325,-131.4929195,10.769502627444636,1.4888731172557559,143.77980194131598,28.055921875000056,31.25792187499993
22000,22000.0,1.275076308,-10.287857199999998,0.13412475599999998,-1.59822998,-0.141720578,-0.429718012,-46.46995535,36.8764502,-125.77323925,10.393513518692355,1.6618930556615623,139.06261382953394,28.004062500000057,31.244062499999927
22100,22100.0,2.2408966,-9.259067199999999,-0.6054534840000001,-0.535101322,-0.55888061,-0.5609618999999999,-47.8404998,36.064604700000004,-122.18970949999999,9.547056690524851,0.9610906687202256,136.08787762620256,27.952203125000057,31.230203124999928
22200,22200.0,1.62510984,-7.953744500000001,-1.73862914,0.3109314,-0.559729,-0.48085632,-49.68666055,35.27221675,-121.40640149999999,8.302344545029129,0.8022116651193725,135.8397974791497,27.900343750000058,31.21634374999993
22300,22300.0,2.047151925,-8.028691115,-3.10236515,0.077539065,-0.662003341,-0.271152501,-50.657500299999995,34.2936714,-120.4691325,8.850305847609588,0.7198618492656608,135.11136353495294,27.848484375000066,31.20248437499993
22400,22400.0,2.670719155,-7.810823194999998,-2.093924695,0.3733543355,-0.1367736799,0.2002258285,-50.278625,34.63775560000001,-120.639954,8.523832733203268,0.4479116536415171,135.21009096008248,27.796625000000066,31.188624999999927
22500,22500.0,4.69184179,-10.9111219,-4.7417328250000015,0.41255798,-0.2464324895,-0.13975067240000005,-50.152588,34.8895276,-122.14843799999998,12.788842617505916,0.5116599121464469,136.5752794219581,27.744765625000067,31.174765624999928
22600,22600.0,-0.31443329200000003,-9.3927873,-0.57277374,0.477645872,0.643058768,0.378071593,-50.0820926,34.91302520000001,-123.39568999999999,9.420815012227354,0.8895007326394101,137.67272573020452,27.692906250000068,31.160906249999933
22700,22700.0,2.4013077000000003,-8.5098035,-0.26655425999999993,0.0614471433,1.33973843,-0.02683563225,-49.1641234,35.318298799999994,-126.33453359999999,8.968889951408912,1.3416640177835413,140.08896396180546,27.641046875000068,31.147046874999933
22800,22800.0,3.21629641,-9.4853243,-0.05538024800000002,0.348963927,0.8698532309999999,0.49845124,-47.7246088,35.913696,-130.060426,10.033305675318882,1.0622168095492206,143.11963456319597,27.589187500000065,31.133187499999934
22900,22900.0,3.66113433,-10.0704663,0.6355819699999999,0.544010942,-0.34709931,0.15010375799999998,-46.40503,35.798645,-131.62842,10.735483083276764,0.6666239839421912,144.08681669338569,27.537328125000066,31.119328124999942
23000,23000.0,1.79509737,-8.956681800000002,-0.228004455,0.301451113,0.1134109502,-0.207821654,-47.153015,35.1297002,-133.440856,9.138656834514947,0.3842984652203981,145.82207289544374,27.48546875000007,31.105468749999943
23100,23100.0,2.8037735,-9.3335329,0.9432358000000001,0.285575868,0.172215272,0.21029205,-46.58725263157895,34.96133821052632,-134.71759631578948,9.793897239705146,0.3955524686444233,146.77035671381304,27.43360937500007,31.091609374999944
23200,23200.0,2.81957551,-9.439354,0.3339111328,0.239353942,0.35000458,0.309147646,-45.520171000000005,35.20744279999999,-136.26632899999998,9.863356382685144,0.5268749360929702,147.91958201918703,27.38175000000007,31.07774999999994
23300,23300.0,2.95676114,-9.4193587,1.03720852,0.147305299,0.21227112199999998,0.240545652,-44.2881775,35.565414399999995,-137.428436,9.927011755263104,0.35309706172687594,148.70422643394159,27.329890625000072,31.063890624999946
23400,23400.0,2.9188071684210533,-9.544840210526317,0.585630717368421,0.05250469157894737,0.3480160357894737,0.17781147315789475,-42.9369365,35.900191,-138.903729,9.999397384416117,0.39454170382146797,149.7554616346045,27.278031250000073,31.050031249999947
23500,23500.0,3.379524225,-10.03916575,0.682746875,0.0719909665,0.3272590625,0.2107200675,-41.87881475,36.40739395,-140.43876550000002,10.615051632162553,0.3970905838142241,151.00491018003416,27.226171875000073,31.036171874999948
23600,23600.0,3.18289945,-11.4433555,-0.13277815999999998,-0.348785405,-0.4421272275,-0.15067291249999998,-41.86630205,37.1900939,-139.78645550000002,11.885762281121693,0.5835985063421971,150.58647496671082,27.17431250000007,31.02231249999995
23700,23700.0,0.2637634322500001,-9.638435000000001,-0.3473549,-1.82258225,-0.982749965,-0.5671882625,-44.47654705,38.92349245,-135.130158,9.664219962715213,2.1469602421301004,147.49172042634459,27.12245312500007,31.00845312499995
23800,23800.0,2.063610025,-11.130321499999999,-0.5415878125,-1.3485374499999998,-0.5289459224999999,-0.35254288,-46.89605695,40.65506105,-129.403459,11.342458895614095,1.4918944315293152,143.51887090903205,27.07059375000007,30.994593749999947
23900,23900.0,1.1983986,-8.17527025,-0.28989410125000004,-0.253444675,-0.498050675,-0.565063475,-49.25743075000001,40.2481833,-126.16500625,8.270958324184331,0.799385530074632,141.29361346678763,27.018734375000072,30.980734374999948
24000,24000.0,0.7071746859999999,-7.757186999999999,-1.95218502,0.37889404600000004,-0.37394713399999996,-0.303594972,-51.5032958,39.564589399999996,-125.9782425,8.034136961255651,0.6158186387758513,141.73383676019253,26.966875000000076,30.96687499999995
24100,24100.0,2.10657656,-7.886230599999999,-2.24810788,0.209945682,0.06899108600000002,0.025787354,-52.1258549,39.27398710000001,-125.9213258,8.470619017130566,0.2363264164486529,141.8300450636422,26.915015625000077,30.95301562499995
24200,24200.0,5.79006036,-11.0918272,-4.78764346,0.51930236,-0.125738524,0.04006958079999999,-51.653442,40.0852967,-127.81906299999999,13.401061682717467,0.5386604255456564,143.57099786707292,26.863156250000078,30.939156249999947
24300,24300.0,-0.24308778,-7.58744194,0.5236602999999997,0.464544686,0.424786388,-0.019808959999999987,-52.7769471,39.289704,-128.67645199999998,7.6919449478565625,0.6523289165178493,144.52286052934022,26.811296875000075,30.925296874999948
24400,24400.0,4.5659148,-10.975946,-4.7689667,0.151989748,0.580960081,0.1007781976,-51.965179799999994,39.845582,-131.201628,12.82116173084064,0.6946607680536592,146.63533574605887,26.759437500000075,30.91143749999995
24500,24500.0,1.7860007691999995,-8.559669249999999,-0.015158082499999948,0.521002968,0.328224945,0.486192329,-51.1022942,40.182647700000004,-133.707121,8.794184509388284,0.7847062475343195,148.6731337663649,26.707578125000076,30.897578124999953
24600,24600.0,1.73249131,-9.5388954,-0.10410690050000004,0.5248390199999999,-0.100128938,0.1741790755,-50.0897218,40.3465269,-135.607148,9.696540039983702,0.5619991460336347,150.08715574513366,26.655718750000077,30.883718749999954
24700,24700.0,2.250234205,-9.305333625,0.08743209814999997,0.3233436625,0.410464478,-0.206494142,-50.236053399999996,39.364929,-138.308109,9.57493520286447,0.5626613929696223,152.32376952125867,26.603859375000077,30.86985937499995
24800,24800.0,2.62409057,-9.3975796,0.7433204449999999,0.2576721205,0.3920349125,0.221102145,-49.687652899999996,39.5193485,-139.6994,9.788035615660263,0.5189402326043151,153.44897664845678,26.552000000000078,30.855999999999952
24900,24900.0,2.990466335,-9.321322599999998,-0.17036742850000006,0.19828415149999998,0.474582676,0.282830815,-48.294678999999995,39.360046000000004,-142.146145,9.791635596990686,0.5871433366317462,155.2005565614349,26.500140625000075,30.842140624999963
25000,25000.0,3.28584515,-9.25464435,1.408249699,0.060921478550000005,0.141419981,0.1734886215,-47.345123,39.8599242,-142.903747,9.924084729005273,0.2319868823725048,155.73008754776868,26.448281250000075,30.82828124999996
25100,25100.0,2.46164246,-9.7958543,0.6361892499999999,0.0178817748,0.497009279,0.154371645,-46.53457630000001,40.1914974,-144.100339,10.12056764689273,0.5208697580516373,156.67090640257715,26.396421875000076,30.81442187499996
25200,25200.0,3.4728378,-9.8542668,0.7162750210000001,-0.07874603050000001,0.319755554,0.266648868,-44.9380501,40.6584164,-144.637146,10.473348940202888,0.4248603960885485,156.8199331285241,26.344562500000077,30.800562499999963
25300,25300.0,3.42985385,-11.7145565,-1.93231048,-0.8261245689999999,-0.81816712,-0.24447479140000006,-46.202698,41.6506965,-142.565153,12.362700575570386,1.1895227969186464,155.5459806007259,26.292703125000077,30.786703124999963
25400,25400.0,-0.69283295,-9.892931999999998,0.799581883,-1.69720306,-0.430627435,-0.498425292,-49.7746271,43.0725088,-135.615084,9.954368309393633,1.8215534496758208,150.7465150485337,26.240843750000078,30.77284374999996
25500,25500.0,2.02397767,-9.8318754,-0.253022769,-0.94757235,-0.347419745,-0.635102845,-52.2518922,43.1475828,-129.976809,10.042638453317505,1.193289781738131,146.58158775301234,26.188984375000075,30.75898437499996
25600,25600.0,1.89229735,-7.92586205,-1.397096215,-0.089929199,-0.509239194,-0.5722488370000001,-55.50003050000001,41.54090875,-127.537155,8.269802264373919,0.7720556287515076,145.16093955383346,26.137125000000086,30.745124999999966
25700,25700.0,2.22276836,-7.78980178,-2.59958722,0.12567749150000002,-0.26854476899999996,-0.019536590525000008,-56.85157750000001,40.61927900000001,-125.92086875,8.510041901137352,0.29858472285399684,144.00732173241198,26.085265625000087,30.731265624999967
25800,25800.0,3.02745206,-8.2115415,-2.70636135,0.4010063145,-0.0931945825,0.18771514700000005,-56.784820999999994,40.741347499999996,-126.8428795,9.161092401394328,0.4525334088519437,144.8223207896277,26.033406250000088,30.717406249999968
25900,25900.0,4.47516775,-10.9706193,-4.1234290599999985,0.58257675,-0.33731002649999997,-0.12335204675000001,-57.0079805,40.32058600000001,-127.94304,12.546867337942778,0.6872003315262103,145.7570828610523,25.981546875000085,30.703546874999965
26000,26000.0,-0.27457504199999994,-8.578874865000001,0.7904243472999999,0.613364412,0.1906456035,0.3419021605,-57.353973499999995,39.87770025,-128.9985675,8.621792941139997,0.7286380133961461,146.69861852194288,25.929687500000085,30.689687499999966
26100,26100.0,3.105990605,-8.59833545,-1.1336151400000003,0.01532669063,0.6951492290000001,-0.01826705925,-56.6036225,40.04364025,-130.10177750000003,9.23761447112116,0.7033889052062983,147.42470258754184,25.87782812500009,30.675828124999967
26200,26200.0,3.877268245,-10.51105535,-1.7657417299999998,0.51252744,0.63693161,0.5685333220000001,-55.25512725,40.096284000000004,-133.252715,11.349498748108545,0.9982692875394265,149.72384854859322,25.82596875000009,30.661968749999968
26300,26300.0,2.8914032000000005,-9.738388,1.096344,0.5444336,-0.7435913000000001,0.15959167,-54.96711725,39.768982,-134.4509075,10.217552714317174,0.9353103588531664,150.59912356703757,25.77410937500009,30.648109374999965
26400,26400.0,1.490799,-9.228424,0.27633667,0.44323729999999995,-0.24612427,-0.19514465,-55.53131075,38.571929499999996,-136.1209875,9.352146980098405,0.5432475446957358,151.98838959899734,25.72225000000009,30.634249999999966
26500,26500.0,1.6763457999999998,-9.130264,1.1466216999999999,0.2578888,0.20236206,0.15319824,-55.38559075,37.77084350000001,-137.06436000000002,9.35342703364839,0.3618379986015581,152.5806483810702,25.670390625000092,30.620390624999967
26600,26600.0,2.2330017000000004,-9.685715,-0.03491211,0.33032227,0.35894775,0.38009644,-53.6899575,38.00544875,-139.11437999999998,9.939848615992727,0.6184089205280668,153.88311370227126,25.61853125000009,30.606531249999968
26700,26700.0,3.9137267999999996,-9.557632,0.8461609,0.18437195,0.23963928,0.35772705,-52.187729,38.7828825,-140.25344750000002,10.362508151077664,0.4683894135945254,154.59208337992402,25.56667187500009,30.592671874999965
26800,26800.0,2.692688,-10.18132,-0.086380005,0.013931273999999999,0.52301025,0.09992981,-50.99906900000001,38.7119295,-141.6832,10.531728590929779,0.5326535167695429,155.47896657786214,25.51481250000009,30.578812499999966
26900,26900.0,4.157928500000001,-11.681289999999999,0.80426025,-0.5921936,-0.1630249,-0.07583618,-50.25939975,39.3138875,-139.80560000000003,12.425286315612302,0.6188873113079331,153.67897336684837,25.46295312500009,30.564953124999967
27000,27000.0,0.6010559129999999,-9.45360455,-1.477652,-1.669551875,-0.7702346925,-0.60436479,-52.59361275,39.892578,-133.40874,9.592170277982119,1.9359388373994129,148.84819670336225,25.41109375000009,30.551093749999968
27100,27100.0,2.381375905,-11.12984025,0.3054771325,-1.4169791699999998,-0.3542472815,-0.2073997485,-53.62091125,39.580153499999994,-125.7148725,11.389583319385192,1.4759195997223866,142.28872231988612,25.359234375000092,30.537234374999976
27200,27200.0,1.286922415,-8.0273716,0.0537872312,-0.19139404397,-0.38459701700000004,-0.709297925,-55.11093149999999,38.4872425,-122.69554,8.132439314008398,0.8316334453993431,139.90278433211802,25.30737500000009,30.523374999999977
27300,27300.0,0.8204750199999999,-8.388896249999998,-2.675829305,0.266354374,-0.421840672,-0.30561523150000003,-56.409606000000004,36.83593860000001,-121.20666399999999,8.843813832852499,0.5865727061513892,138.6722807031338,25.25551562500009,30.509515624999977
27400,27400.0,2.664852085,-8.104884700000001,-2.608495305,0.0966018673,-0.08637542725,0.04836578365,-56.0696412,36.2438964,-120.46966200000001,8.921612303380838,0.13858548853280014,137.73302024145227,25.20365625000009,30.495656249999982
27500,27500.0,4.31552737,-9.19640225,-3.5203842000000005,0.368563845,-0.224070735,-0.11674499349999999,-55.893105526315786,36.1308047368421,-120.53045842105264,10.75142283395606,0.4479093411054223,137.68474917945937,25.15179687500009,30.48179687499998
27600,27600.0,2.2958823263157897,-7.3170944947368435,-3.738241889473684,0.12696115736842106,-0.43338093157894736,-0.31210648315789474,-56.3720706,35.124817,-119.957272,8.535095926111628,0.5574268075435599,137.11787129010864,25.09993750000009,30.46793749999998
27700,27700.0,2.37354127,-9.990498599999999,-2.0265289,1.13278194,0.511286923,0.6501418959999999,-55.394592,35.3970338,-122.7996828,10.467294396772072,1.404848163033526,139.28881655552848,25.048078125000096,30.45407812499998
27800,27800.0,2.266641192,-7.11780852,-0.42122193,-0.047422791000000006,1.07075805,-0.19248046800000002,-54.2831424,36.066284,-125.68756,7.616966129431447,1.089538695490138,141.5800414933564,24.996218750000097,30.440218749999985
27900,27900.0,2.96585696,-8.81254995,0.2771728549,0.492239374,0.603645315,0.248001102,-53.3560174,35.748596,-127.972105,9.33591356591352,0.8177792702019892,143.18419252367883,24.944359375000094,30.426359374999986
28000,28000.0,1.7195648300000002,-9.398649699999998,1.0842621,0.69048462,-0.07866516,0.11367950199999999,-52.875671999999994,35.61950640000001,-129.291688,9.620478579538098,0.7056609435002948,144.15605875961032,24.892500000000094,30.412499999999987
28100,28100.0,2.38681792,-9.2112995,0.25825653600000004,0.194284061,0.49551849299999995,-0.0040435789260000006,-52.7032486,34.960632600000004,-130.717778,9.521340944429726,0.5334139357784801,145.21386895008075,24.8406406250001,30.398640624999985
28200,28200.0,3.01638029,-9.5466076,0.755169678,0.18970184,0.49339448,0.212948605,-51.5417478,35.1312256,-132.319636,10.040306328144123,0.5699610454133148,146.28484917216755,24.7887812500001,30.384781249999985
28300,28300.0,2.62977987,-9.202805300000001,0.74027328,0.139530185,0.4519439755,0.2935958895,-50.209959999999995,35.66345240000001,-134.476622,9.601344397904763,0.556954830363291,147.90854422030736,24.7369218750001,30.370921874999986
28400,28400.0,2.91726302,-9.6283171,0.77324752,0.2323219305,0.28406295600000003,0.2454513515,-48.7725824,35.8493054,-135.608826,10.091852558303954,0.4422969530672596,148.50488720153118,24.6850625000001,30.35706249999999
28500,28500.0,3.49928432,-9.83930385,0.96460649,-0.0141311641761,0.5635917699999999,0.192401121,-47.235412,36.146545399999994,-136.29943799999998,10.491326820686908,0.5969555569706986,148.71241380818668,24.6332031250001,30.34320312499999
28600,28600.0,2.16835554,-11.07441595,-0.28038101550000005,-0.310437006,0.07628631285000001,-0.2576225315,-46.6073594,35.83923319999999,-136.18378,11.29144563019186,0.4134482508914877,148.3331662605744,24.5813437500001,30.32934374999999
28700,28700.0,1.998486325,-9.7950687,-1.2690650541,-1.809309385,-0.435369111,-0.419600674,-47.6458742,36.9631968,-132.09625,10.096317087564461,1.9077796610517341,145.21016547747575,24.529484375000106,30.31548437499999
28800,28800.0,2.2510773,-11.622685625,-0.1170379634,-1.5217010599999998,-0.2022834755,-0.34487609799999996,-49.2474372,37.189026,-125.1306148,11.844092677155915,1.5746509079818247,139.5209378796258,24.477625000000106,30.30162499999999
28900,28900.0,1.4318909,-8.440017800000001,0.074023436,-0.34229126200000004,-0.354989622,-0.77251892,-50.6704706,36.3131724,-122.197267,8.562490084061528,0.9307078950018924,137.18005978129574,24.425765625000103,30.28776562499999
29000,29000.0,0.465121458,-7.1141052,-1.75347598,0.29815673800000003,-0.4977355860000001,-0.356643672,-51.9613646,34.838561600000006,-120.9133908,7.342390679263867,0.6822259314089144,136.13876082314852,24.373906250000104,30.27390624999999
29100,29100.0,3.4135742,-8.532904199999999,-3.34393614,0.121740726,-0.18156128,0.13082886,-51.9171895,35.17166105,-120.3076939,9.781367012633751,0.2551142062171122,135.67016866532649,24.322046875000105,30.260046874999997
29200,29200.0,3.9142120000000005,-8.5448758,-3.31089782,0.318383792,-0.11189880279999999,-0.0447357184,-51.59729,34.9693295,-121.149752,9.965868072777852,0.3409397557217788,136.24391854252355,24.270187500000105,30.246187499999994
29300,29300.0,2.2085724,-7.62766116,-3.32359312,0.298788452,-0.1587646508,-0.1265502896,-51.82128855,34.569244899999994,-121.36573700000001,8.632403369195499,0.38576512272119695,136.4189339619915,24.218328125000106,30.232328124999995
29400,29400.0,3.80765994,-13.505182199999998,-4.71438296,0.602389524,-0.204141236,0.44571228399999996,-50.60089135000001,35.39710845000001,-123.8610081,14.81910315119823,0.7887806215661034,138.40145850077423,24.16646875000011,30.21846875
29500,29500.0,-0.24380874175,-7.97595225,2.4517707000000004,0.413406375,0.8305969075,0.2096557625,-50.47622675,36.3101197,-125.90309099999999,8.37490881466144,0.9636501311052252,140.42040916642412,24.11460937500011,30.204609375
29600,29600.0,2.264419525,-10.15647125,0.7883949275,0.441368105,0.2801246665,0.38888168,-48.61793495,36.7062381,-129.1812845,10.436265760779188,0.6772871934072672,142.82488812092268,24.06275000000011,30.19075
29700,29700.0,2.91055685,-10.01342,0.92905426,0.65655519,0.2961044325,-0.005260467500000001,-48.2294463,36.69982930000001,-130.4050415,10.470805294758023,0.7218669446918821,143.8000429394579,24.01089062500011,30.176890625
29800,29800.0,1.5524483,-9.238296625,0.4220771775,0.2195282025,0.261745455,-0.07264328249999999,-48.21548455,36.2458802,-132.67631799999998,9.379229518238654,0.35184481816256785,145.7447246510227,23.95903125000011,30.16303125
29900,29900.0,2.251850125,-9.46964275,0.5507660000000001,0.26028061,0.3389778125,0.14733505,-47.4958041,36.5058126,-133.63663050000002,9.749974906891657,0.4522576152511039,146.4489142844011,23.90717187500011,30.149171875
30000,30000.0,3.095802275,-9.442108125,0.382873545,0.236049655,0.3147430425,0.3787651075,-46.16836515,36.463240500000005,-135.565416,9.946060102173544,0.5465362949805157,147.78052152081432,23.85531250000011,30.1353125
30100,30100.0,2.78905485,-9.96464175,0.78241348,0.186244965,0.1296539325,0.180358885,-44.79568490000001,37.145005,-136.3797775,10.382946954919335,0.3011184764045541,148.27642663227147,23.80345312500011,30.121453125
30200,30200.0,3.12998352,-9.3930283,0.9474274,-0.1435104355,0.691098035,0.204118351,-43.0745688,37.1827685,-137.58934100000002,9.958804201670883,0.7360849239484235,148.89200918552302,23.751593750000108,30.107593750000003
30300,30300.0,3.40065461,-11.5381077,0.8876953360000001,-0.09727783,-0.256341552,-0.051446533899999994,-42.34710575,37.6548765,-137.151487,12.069942009891598,0.2833898336360926,148.39712773788258,23.69973437500011,30.093734375000004
30400,30400.0,0.94778749,-9.4035587,-0.9149032509999999,-1.38145596,-0.45608062200000005,-0.37241058,-43.20045515,38.4011076,-134.5037055,9.495620775304852,1.501805853760964,146.39751196696847,23.647875000000113,30.079875000000005
30500,30500.0,0.546754465,-10.898974800000001,-0.627714535,-1.50704499,-0.08760833720000001,-0.48031921299999997,-44.60617105,39.38713045,-128.47014950000002,10.934946431426578,1.5867218160278536,141.5828881857045,23.596015625000113,30.06601562500001
30600,30600.0,2.31344446,-9.1732378,0.12872466400000002,-0.609028626,0.02306976300000001,-0.583969114,-45.9261326,39.504394299999994,-125.1640305,9.468712912807161,0.8597029758421615,139.05351027511858,23.544156250000114,30.05215625000001
30700,30700.0,1.067855835,-8.0534651,-1.20879057,0.211862179,-0.541300966,-0.43706665200000006,-47.3425293,38.9626314,-124.0649419,8.217784705292875,0.7287272392673827,138.3890351837293,23.492296875000115,30.03829687500001
30800,30800.0,2.99866255,-8.536257975,-2.8984992750000003,-0.01802063,-0.228910829,0.008480071995000001,-47.934799600000005,38.5173025,-123.09615790000001,9.502640882105425,0.2307075278875586,137.60087837327566,23.440437500000115,30.02443750000001
30900,30900.0,3.53166959,-8.065856975,-2.795603115,0.2954368615,-0.1941902125,0.10573654060000001,-47.658866714285715,38.78631714285714,-123.29668000000001,9.242490754309104,0.3709720691551289,137.76002949038372,23.38857812500012,30.01057812500001
31000,31000.0,3.56118015,-8.927290249999997,-4.19848714,0.2184158295,-0.5053512645,-0.2056396525,-47.5576787,38.612365999999994,-123.6828645,10.49523554877392,0.5895655908001929,138.0220973445904,23.33671875000012,29.99671875000001
31100,31100.0,1.195950325,-10.11691675,-1.17850646,0.736132812,0.1015312206,0.5166671939999999,-47.110749799999994,39.353637299999995,-124.9893191,10.286961307219975,0.9056847172370912,139.24969579796348,23.28485937500012,29.98285937500001
31200,31200.0,1.12364577,-7.86630151,1.0086601230000003,0.02724990855,1.20594481,-0.15440750025,-46.5678405,39.672698700000005,-127.03903500000001,8.264500306074266,1.2184651654899843,141.00145227897522,23.233000000000118,29.96900000000001
31300,31300.0,2.893680585,-10.0569967,0.1415435699999999,0.4390251125,0.759436045,0.44795684950000003,-45.005493,40.422059999999995,-129.63897300000002,10.48744356562751,0.9864562966535162,143.05852989975526,23.18114062500012,29.95514062500001
31400,31400.0,2.523588535,-9.893469099999999,0.210852815,0.634084305,-0.3963165275,0.227442167,-44.194182899999994,40.1599118,-131.37878,10.213029869927473,0.7975835210752616,144.31340281743996,23.12928125000012,29.94128125000001
31500,31500.0,1.96101684,-9.1915556,0.047927856000000005,0.260229492,0.1537841776,-0.12420349160000001,-44.302826,40.2449034,-133.19686399999998,9.401831542410928,0.3346640533355218,146.02671355125253,23.07742187500012,29.92742187500001
31600,31600.0,2.54280696,-9.6761443,0.672091674,0.299636838,0.212158204,0.199639896,-43.7266537,40.1474,-133.370518,10.028163363013917,0.41799171733048207,145.9847142797127,23.02556250000012,29.91356250000001
31700,31700.0,2.64671324,-9.431927400000001,-0.33227233999999994,0.25745544600000003,0.261590578,0.320651242,-42.42294329999999,40.3097535,-135.59875300000002,9.810860214942814,0.4891218426663662,147.68776877564125,22.97370312500012,29.899703125000013
31800,31800.0,2.2765686,-9.43432,0.89954834,0.137509152,0.200436402,0.165341188,-41.028594899999995,40.6996152,-135.71410600000002,9.74858312473624,0.29607122737329794,147.5064047399796,22.921843750000118,29.885843750000014
31900,31900.0,2.66778262,-9.3371216,1.31996462,-0.0210021975,0.58521424,0.17897339199999998,-40.138093700000006,40.9077451,-136.73431399999998,9.80931461545931,0.6128488482146509,148.25918118841975,22.86998437500012,29.871984375000014
32000,32000.0,3.66496582,-11.1519198,1.20025636,-0.049761963,-0.08909301680000001,0.072445679,-39.1435227,41.3652027,-136.630091,11.80166792282342,0.15778758180641345,148.02391171561467,22.818125000000123,29.85812500000002
32100,32100.0,1.37180788,-10.2313476,-1.42569888,-1.24264526,-0.53246766,-0.39435424799999996,-40.545044299999994,41.8150329,-133.696292,10.435613022417119,1.4098514105766502,145.83278867050282,22.766265625000123,29.84426562500002
32200,32200.0,0.18613662700000005,-10.91592085,0.12376784999999997,-1.592323305,-0.2611938475,-0.4794609175,-42.4726864,42.93991130000001,-126.31180049999999,10.921742852522437,1.683834553132047,140.00898638634527,22.714406250000124,29.83040625000002
32300,32300.0,1.40627823,-9.28325455,0.023687744200000013,-0.8155792234999999,-0.2958099325,-0.524203475,-43.9753734,42.5030518,-121.5829465,9.392621716839043,1.018913440816862,136.098648102252,22.662546875000125,29.816546875000018
32400,32400.0,1.2609558,-7.4716795,-1.43372345,0.07412719849999999,-0.453315735,-0.39434815,-45.278014,41.5744026,-119.832151,7.720118174425425,0.606487998434015,134.67852389781984,22.610687500000125,29.802687500000022
32500,32500.0,1.91935735,-8.2994765,-3.157547,0.14975738500000002,-0.29352569500000003,-0.01937866225,-45.93276945,41.612244,-119.063189,9.093830811673588,0.3340552636101434,134.22913567514098,22.55882812500013,29.788828125000023
32600,32600.0,3.329898785,-8.61215745,-2.701749395,0.247978212,-0.07998580934999999,-0.0829757695,-45.695953,41.5840152,-119.357146,9.621070168395967,0.27783063596091345,134.40047703019675,22.50696875000013,29.774968750000024
32700,32700.0,3.49809029,-8.16935177,-3.36985627,0.2354522675,-0.4367485075,-0.2421234205,-46.262970200000005,41.3630679,-119.8455784,9.506781446331,0.5522675989197631,134.95975869907988,22.455109375000127,29.761109375000025
32800,32800.0,0.413947291,-9.353939625,-0.974097465,0.8367431614999999,0.43858643350000004,0.5165580735,-45.751342799999996,41.6258243,-122.115174,9.417323596621817,1.0798235466244177,136.8870758620829,22.403250000000128,29.747250000000022
32900,32900.0,1.9830531289473687,-8.560252736842106,0.5290478947368424,0.05060457105263158,1.0908966210526316,0.044367739842105264,-44.7137451,42.0677187,-122.938229,9.047726956053827,1.0932796601026251,137.41489782057792,22.35139062500013,29.733390625000034
33000,33000.0,3.27902528,-9.8190734,-0.300665282,0.3810241720000001,0.54111328,0.40608520600000003,-43.164673,42.9251088,-126.06659199999999,10.38120982517988,0.7810479473856808,139.9950531216191,22.29953125000013,29.719531250000035
33100,33100.0,1.89254456,-9.6251464,0.96131592,0.497781372,-0.6960876420000001,0.06925354019999999,-43.1222531,42.5810243,-127.671508,9.876241197009778,0.8587865907542735,141.3248114236133,22.24767187500013,29.705671875000032
33200,33200.0,1.89397886,-9.4067964,0.052954103999999946,0.41000366200000005,-0.0047332759999999955,-0.19876404,-43.661955,42.6213076,-129.585111,9.602470879656641,0.4623022036549128,143.2315072898437,22.19581250000013,29.691812500000033
33300,33300.0,2.11712034,-9.2016052,1.03936462,0.198233032,0.37024535799999997,0.0628570562,-43.643645,42.056886,-130.46645800000002,9.503372340668662,0.4272859346818864,143.8579852082463,22.143953125000127,29.677953125000034
33400,33400.0,2.0955688,-9.7417358,-0.06842651400000001,0.22933655200000005,0.345742796,0.187496948,-42.84042279999999,42.3594669,-131.486356,9.964846685568704,0.4572048805349342,144.6316130550361,22.092093750000128,29.664093750000035
33500,33500.0,3.15883488,-9.278702,1.44518434,0.0744384756,0.164648442,0.24182739,-41.89816438095238,42.472186,-132.43982666666668,9.90932229340136,0.3059022705805911,145.25725807010724,22.04023437500013,29.650234375000032
33600,33600.0,1.98711544,-9.862652800000001,0.53705748,0.10874023599999999,0.289071654,0.19324951399999998,-40.8805847,42.949829,-132.914578,10.077694652210107,0.3681009695040929,145.54105441125694,21.988375000000133,29.636375000000033
33700,33700.0,2.4922821,-9.6871521,1.4990509200000002,0.002426147199999999,0.407101438,0.35559388,-39.1766357,43.076628799999995,-133.797451,10.117531194844416,0.5421309256186018,145.9183694388411,21.936515625000133,29.622515625000034
33800,33800.0,2.7414454,-11.54223302631579,-0.02199594842105268,-0.0465569737368421,-0.2866018157894737,0.07156612789473682,-38.416290000000004,43.6201474,-133.513942,11.881397589651518,0.3083901298206317,145.61772268218945,21.884656250000134,29.608656250000035
33900,33900.0,1.61541371,-9.373093699999998,-0.09362869499999993,-1.747479265,-0.563300335,-0.4896369900000001,-39.192886200000004,44.2706298,-128.5858935,9.523341719860328,1.9018029779878216,141.52854116866212,21.832796875000135,29.59479687500004
34000,34000.0,1.1531524875,-11.65123815,-0.21412047999999995,-1.495117935,-0.421137236,-0.43424835799999995,-41.21093735,44.41192630000001,-120.259172,11.734208073005314,1.6147572286883058,134.65912174260313,21.780937500000135,29.580937500000037
34100,34100.0,1.081864205,-8.181619895,-0.661714183,-0.45286484,-0.3435379005,-0.6455398545000001,-42.72643885,42.9217531,-116.2634308,8.282412295581796,0.8670918069631924,131.09165317821336,21.72907812500014,29.567078125000037
34200,34200.0,0.48116225450000005,-7.99379445,-1.175930779,0.29485245050000003,-0.5597274670000001,-0.48367233,-44.5714576,42.2548665,-115.12389850000001,8.095894440042269,0.7986873323328683,130.48226438305062,21.677218750000137,29.55321875000004
34300,34300.0,2.582614875,-8.53704245,-3.830022415,0.03656921505,-0.10070724844999998,-0.22977142399999997,-44.9909208,42.238846,-115.0480635,9.709313552695317,0.27424605614340825,130.554077047171,21.625359375000137,29.53935937500004
34400,34400.0,3.74110495,-8.87994475,-2.577316275,0.49330978,-0.38230972700000004,0.0959388725,-44.984666499999996,41.88880935,-115.34271225,9.980191838894113,0.6325785710223477,130.69909044703275,21.573500000000138,29.525500000000036
34500,34500.0,2.93839346,-8.079564,-4.39169693,0.20600204600000002,-0.492777255,-0.400528719,-45.272827,41.970825,-115.21606399999999,9.669744245682784,0.6698996881653535,130.71312259832465,21.52164062500014,29.511640625000037
34600,34600.0,2.150639344,-12.8710815,-4.47890472,0.676110835,-0.480258175,0.7251312249999999,-44.023132000000004,42.91992,-117.507935,13.896500203990357,1.1227339114122359,132.6207769237537,21.46978125000014,29.49778125000004
34700,34700.0,-1.36620486,-7.11577765,2.81730655,0.469657899,0.8343750000000001,0.10824279966,-43.643190000000004,43.304443,-119.12383999999999,7.8164863560351465,0.9939552340656512,134.0540639938303,21.41792187500014,29.483921875000046
34800,34800.0,2.81239164,-10.443961900000001,0.7784057609999999,0.479777524,0.6738388040000001,0.14446258399999998,-42.492676,44.444275,-121.41723999999999,10.851663148098028,0.8452150044426151,136.09947561667607,21.36606250000014,29.470062500000047
34900,34900.0,3.0493012000000004,-10.3996658,1.46732331,0.609742742,-0.05937347480000005,0.148718261,-42.010498,44.25659,-122.70355,10.939011416715116,0.66204511753175,137.03900497025876,21.31420312500014,29.456203125000048
35000,35000.0,1.75846558,-9.078664,0.5253295850000002,0.10704346,0.281407167,-0.199086002,-42.407227,43.981934,-124.11957,9.282644780750472,0.3700923993755204,138.34179078353287,21.26234375000014,29.44234375000005
35100,35100.0,2.32374264,-9.6391513,0.5557373000000001,0.279194642,0.353514096,0.174816893,-42.22412,44.366455,-125.72936999999999,9.931898506659381,0.4835685492150801,139.85397069671754,21.210484375000146,29.428484375000053
35200,35200.0,2.5952438,-9.093633800000001,0.6260055600000001,0.176814267,0.36246644100000003,0.377325439,-41.0614,44.743347,-127.049255,9.480380699531036,0.5524459319930912,140.81732445540015,21.158625000000146,29.414625000000054
35300,35300.0,2.568489075,-9.973324,0.7602653475,0.24962616,0.1267204325,0.22962570000000002,-39.605713,44.836426,-128.53088,10.329136388259935,0.3624292876441199,141.7713113160284,21.106765625000147,29.40076562500005
35400,35400.0,1.5081558000000002,-10.09722175,0.6025390589999999,0.043769836000000006,0.7150230375,0.04933166475,-38.92517,45.02411,-128.8742,10.234993565310958,0.7194122427085576,141.9538614003191,21.054906250000144,29.386906250000052
35500,35500.0,3.522273975,-10.989360875,1.7625389,-0.1921882575,0.1605415325,0.076229095,-38.145447,45.30182,-128.7445,11.674730527707846,0.2663871864621025,141.71265399530208,21.003046875000145,29.373046875000053
35600,35600.0,1.097850775,-9.7464715,-0.9961853,-0.816165925,-0.442394255,-0.1160507205,-38.621520000000004,45.484924,-126.501465,9.866779853353744,0.9375588819641176,139.86822643310524,20.951187500000145,29.359187500000054
35700,35700.0,0.0803070050000001,-10.34173225,-0.10584259050000001,-1.632698075,-0.6155013925,-0.626579275,-39.94751,45.462036,-119.444275,10.357369996658486,1.855382827033048,133.90121397037822,20.899328125000146,29.34532812500005
35800,35800.0,2.060012775,-11.08393475,0.11383056749999998,-1.01058197,-0.0487823495,-0.55467607,-41.95862,43.936157,-114.24408000000001,11.304079660132572,1.160021037041093,129.39328228033884,20.847468750000147,29.331468750000052
35900,35900.0,1.42423404,-7.444497539999999,-0.7696930019999999,-0.33164062,-0.726547246,-0.531350686,-44.172670000000004,41.944885,-110.78339,7.624071015335683,0.9633214301550302,126.426095615123,20.795609375000147,29.317609375000053
36000,36000.0,1.19224246,-7.46628414,-2.51818234,0.152847292,-0.293203736,-0.0464324956,-44.65332,41.56494,-109.80377,7.9816383629179155,0.33548124745379937,125.61222524276407,20.743750000000148,29.303750000000054
36100,36100.0,2.31702882,-7.54362484,-3.1351654,0.27449646,0.126290892,0.1740692128,-44.758606,41.760253999999996,-111.08093000000001,8.493782119105866,0.3552880692748474,126.83148124528331,20.69189062500015,29.28989062500005
36200,36200.0,4.2461090000000015,-9.514774099999999,-4.0808105700000015,0.43610839549999997,-0.384339139,-0.06428298774999999,-43.789673,42.89093,-111.13586399999998,11.192582161180503,0.5892048829799661,126.91866531262579,20.64003125000015,29.276031250000052
36300,36300.0,1.029668455,-12.3798528,-3.05795603,0.3100837705,0.10771408015000006,0.6054573000000001,-43.322753999999996,43.75305,-113.88091999999999,12.850698080301488,0.7148037257297963,129.46062852656559,20.588171875000146,29.262171875000053
36400,36400.0,-1.0405997940000002,-7.7698119499999985,1.72405087,0.44286042,1.10932391,0.16890334755,-43.429565000000004,43.76068,-115.47241000000001,8.05473904683437,1.210192999297138,130.9007322414956,20.536312500000147,29.248312500000054
36500,36500.0,1.98531416,-9.3426199,0.4275352485,0.584860226,0.26047287,0.15025863300000006,-42.29682879999999,44.81849675,-118.560561,9.56955715960504,0.6628881181905586,133.6200985329829,20.484453125000147,29.23445312500006
36600,36600.0,3.03421783,-10.3356266,-0.09991607400000002,0.606111133,-0.07322692870000001,-0.08041839450000003,-42.196655,45.100403,-120.32471000000001,10.777793454942213,0.6191709822093554,135.25028606452386,20.432593750000148,29.220593750000056
36700,36700.0,1.05672913,-9.1765931,0.485586562,0.142092889,0.183816526,-0.11184845,-42.982483,45.09391765,-120.9632145,9.251810990370931,0.2600628729110737,136.06272011250834,20.380734375000152,29.206734375000057
36800,36800.0,2.0853989,-9.528542999999999,0.389105222,0.35588073299999995,0.131304938,0.240014652,-42.3129268,45.5637355,-122.10243500000001,9.762480522489671,0.4491721322058392,137.0235474258042,20.328875000000156,29.192875000000058
36900,36900.0,2.6590423800000003,-9.7655626,0.52054136,0.21378327,0.054716490400000005,0.24108123899999997,-41.63024729999999,45.7038118,-123.83995049999999,10.134658719817091,0.3268310220200099,138.41339017434518,20.277015625000157,29.179015625000066
37000,37000.0,2.02027896,-9.622030699999998,0.97053373,0.203981017,0.0767684947,0.21519470300000001,-41.0524749,46.26388540000001,-123.910143,9.8798859485066,0.3068446068243142,138.48963813187135,20.225156250000158,29.165156250000067
37100,37100.0,1.94245907,-9.4804123,0.84674683,0.031295776000000004,0.50339813,0.197724911,-40.7607261,46.46400465,-124.5619983,9.714461049235696,0.5422723072876904,139.05410048552932,20.17329687500016,29.151296875000067
37200,37200.0,3.664189875,-10.72377845,1.33271938,-0.0252662654,0.0671768193,0.2772499095,-39.60105875,46.99539179999999,-125.22232275,11.41107690016515,0.2877435225091405,139.48993150365558,20.12143750000016,29.13743750000007
37300,37300.0,2.085337045,-11.2150665,-2.2594269000000002,-1.095375805,-0.343849935,-0.4696060215,-40.4936221,46.9007111,-122.7297175,11.628984113922295,1.2409280420317224,137.48475112632764,20.06957812500016,29.123578125000066
37400,37400.0,-1.509799915,-11.26989585,-0.03348007279999998,-1.85336681,-0.500711056,-0.6817016850000001,-43.46130355,45.15754715,-114.306486,11.37142716612734,2.0379075501303516,130.3615029679686,20.01771875000016,29.109718750000066
37500,37500.0,1.615120675,-10.1514453,-0.7878311415000001,-0.93158568,-0.6794128209999999,-0.7339088425,-45.55870039999999,42.11555515,-107.8832275,10.312924949854473,1.3689388980148756,124.45131203460251,19.96585937500016,29.09585937500007
37600,37600.0,0.8044341835,-7.005222335,-1.236264825,0.05420455949999999,-0.456027226,-0.4717918385,-47.25478985,40.23284935,-105.9069058,7.158988612100548,0.6593028465728397,122.75171143580285,19.91400000000016,29.082000000000072
37700,37700.0,2.51437842,-8.5761211,-3.21051709,0.21453170850000006,-0.610753645,-0.147160338,-47.650529,39.76921055,-105.69335975,9.497954142310599,0.6639960660083517,122.56936563423577,19.86214062500016,29.068140625000073
37800,37800.0,2.8387298999999997,-7.7595825,-2.421936,0.34416199999999997,-0.28660583,0.042404175,-47.83431995,40.23109575,-105.8807373,8.610184783589505,0.4498760919313445,122.95287083808887,19.81028125000016,29.05428125000007
37900,37900.0,3.5019226000000003,-9.534882000000001,-4.600662000000001,0.37825012,-0.59339905,-0.10246277,-47.26707375,40.70549025,-106.675491,11.15094289683876,0.7111217934060169,123.5749776120026,19.75842187500016,29.04042187500007
38000,38000.0,-0.26774597,-10.5979,-1.5061493000000001,0.7351227,0.42926025,0.6304320999999999,-47.5459289,42.164992,-108.772276,10.707738231220528,1.0592990035848058,125.97594257173428,19.70656250000016,29.02656250000007
38100,38100.0,0.25299072,-7.693741,1.8385468,0.08531189,1.6766815,-0.0811615,-47.23602285,42.54859935,-110.4179405,7.914411488877575,1.6808111613443886,127.41175049018284,19.65470312500016,29.012703125000076
38200,38200.0,2.7764740000000003,-10.626633,0.42956543,0.42939758,0.8255309999999999,0.6474762,-47.2248841,43.71955825,-114.001309,10.991754329860909,1.1336265448715006,130.911852319286,19.602843750000158,28.998843750000077
38300,38300.0,3.2684937,-10.065201,0.07043457,0.58065796,0.14590454,-0.007659912,-46.5559391,45.0122054,-115.94848700000001,10.582829643625177,0.5987574430066159,132.80669546114424,19.55098437500016,28.984984375000078
38400,38400.0,0.8991927949999999,-8.65555075,0.28376084,0.2368469225,0.203261566,-0.212986757,-47.569123700000006,44.3542477,-117.928926,8.707395511439973,0.378724344406267,134.67500156234982,19.499125000000163,28.971125000000075
38500,38500.0,2.32631228,-10.105413699999998,-0.02204055825,0.34875640550000003,0.3405708275,0.1262969975,-48.2232672,44.5635982,-119.268953,10.370879771169284,0.5039149520262234,136.14886355144594,19.447265625000163,28.957265625000076
38600,38600.0,2.4455398550000003,-9.17850445,0.1854698125,0.2794586195,0.391072081,0.294343568,-47.72705070000001,44.8420719,-120.965575,9.50067865026408,0.5636646358040556,137.55497150038127,19.395406250000164,28.943406250000077
38700,38700.0,2.598106475,-9.6229255,0.85171433,0.171070102,0.32422714,0.3205467215,-46.7070004,45.3102115,-123.063355,10.004051953195876,0.4872257560883338,139.20902050180106,19.343546875000165,28.929546875000078
38800,38800.0,1.86075672,-9.3475954,1.429619555,0.1067222593,0.456425475,0.2694740185,-46.02005,45.6968693,-123.7799075,9.63795819345042,0.5407500391458631,139.74092028786598,19.291687500000165,28.915687500000075
38900,38900.0,2.2799812200000003,-11.3605864,0.98112178,0.05143050977,0.01173171985,0.056042480049999996,-45.8279416,45.7267765,-124.407044,11.630333645650092,0.08043994625739473,140.24355712482338,19.239828125000166,28.901828125000076
39000,39000.0,1.55424574,-10.105784800000002,-1.428823065,-0.9152351335,-0.169422147,-0.081269072,-46.269684000000005,45.5625912,-123.13110400000001,10.325370568766788,0.9344686718825644,139.20549366647916,19.187968750000167,28.887968750000077
39100,39100.0,-0.389617915,-11.317719699999998,-0.546798706,-1.76100006,-0.5845520160000001,-0.7329956,-48.24478189999999,43.0152895,-116.171874,11.33764323090416,1.9959445883231572,132.94290303182743,19.136109375000167,28.874109375000078
39200,39200.0,1.71226344,-9.4756179,-0.69116361,-1.03971101,-0.107414243,-0.618167115,-50.6410213,40.253448299999995,-111.490785,9.655779722008893,1.2156430601756358,128.89943539009278,19.084250000000168,28.860250000000075
39300,39300.0,1.5736328169999998,-8.27097805,-0.86833494,-0.0469909666,-0.68500671,-0.6993332160000001,-52.26226810000001,37.8755187,-108.97995300000001,8.469839727300643,0.9814537892562244,126.6591758335717,19.032390625000172,28.846390625000087
39400,39400.0,1.89170838,-8.587372,-3.19226687,0.094044493,-0.387800596,-0.130810547,-52.6470943,37.1379087,-108.69629240000002,9.362826270099193,0.4204328777568188,126.35597446073231,18.980531250000173,28.832531250000084
39500,39500.0,1.36869505,-6.849897900000001,-1.57678074,0.292607114,-0.163235476,0.047833252300000004,-53.027955500000004,36.69616729999999,-109.1056826,7.1632839080834,0.3399821619483884,126.73841672210008,18.928671875000173,28.818671875000085
39600,39600.0,4.86745298,-11.3959004,-4.06566775,0.593545531,-0.336982726,0.038034057299999986,-52.5576784,37.801056,-111.05804499999999,13.045590928354,0.689031711215188,128.5500920777544,18.87681250000017,28.80481250000009
39700,39700.0,-2.167848225,-9.555895,0.2390411415,0.4805160515,0.5421813895,0.456052398,-52.93319750000001,37.7116408,-111.81076259999999,9.829083541551645,0.8722370019819022,129.32817644817294,18.82495312500017,28.79095312500009
39800,39800.0,2.4723556145,-8.42074675,1.1370452800000002,0.17042541600000002,1.43705596,0.07117233305000001,-51.8197634,38.737946,-114.196015,8.941079998204678,1.4493866438538698,131.25034948811822,18.77309375000017,28.77709375000009
39900,39900.0,2.2434753350000003,-10.45628705,0.19613494675,0.343688967,0.277516176,0.5052101139999999,-51.2081912,39.9650586,-118.4852604,10.708884214358063,0.6738076506398047,135.12311547441865,18.72123437500017,28.763234375000092
40000,40000.0,1.660665915,-9.88575355,0.58620224,0.536130546,0.0118392946,-0.0028633119499999987,-50.5844115,40.432129100000004,-119.9978635,10.042142677881511,0.5366586528309552,136.35625326726105,18.669375000000173,28.74937500000009
40100,40100.0,1.94347835,-9.22471145,0.2494606025,0.2397712695,0.3201179475,-0.1347953765,-51.0762786,40.02220000000001,-121.81557009999999,9.433375395150822,0.42229316171225145,138.02031872169744,18.617515625000173,28.73551562500009
40200,40200.0,2.07187046,-9.484365400000002,0.5019340480000001,0.303102113,0.056791687499999986,0.240282439,-50.8905804,40.17387555000001,-123.2191499,9.722927123778788,0.3929686252522507,139.23645717651357,18.56565625000017,28.72165625000009
40300,40300.0,2.278427852631579,-9.315805842105263,-0.16212061500000002,0.312217312631579,0.114053024,0.3224535494736842,-49.9156945,40.721742,-125.486147,9.592270095233127,0.4632936771875111,141.0554715808079,18.51379687500017,28.707796875000092
40400,40400.0,2.88229978,-9.752759,1.11095584,0.18416442800000002,-0.0929382298,0.261001586,-48.8350675,41.10916075,-126.59637425,10.23318678306306,0.3346840571236049,141.77966044744775,18.46193750000017,28.69393750000009
40500,40500.0,1.56669312,-9.2617006,0.35151366799999995,0.090213015,0.55517886,0.0577423096,-48.25653145,41.096497,-127.86582949999999,9.402272321400517,0.5664744941917651,142.7140018907641,18.410078125000176,28.68007812500009
40600,40600.0,2.49923092,-12.2051394,1.00776365,-0.149685668,0.244757082,0.0848114012,-47.8739934,41.31736725,-128.8865695,12.50754701542903,0.3029422639229929,143.56461426974175,18.358218750000177,28.66621875000009
40700,40700.0,1.86596676,-9.6445406,-1.4290527080000002,-1.35087892,-0.1770874,-0.39670104799999995,-48.147507,41.48216255,-127.20779499999999,9.939629338685991,1.4196286643906568,142.20017061462588,18.306359375000177,28.652359375000096
40800,40800.0,-0.029763800000000007,-10.9982148,0.15231018400000002,-1.55328062,-0.26508179800000004,-0.54562378,-49.86412,40.48019385,-121.184233,11.015034480912984,1.6676078909297454,137.15262783058114,18.254500000000178,28.638500000000096
40900,40900.0,1.4584716880000002,-9.7695096,-0.7246826199999999,-0.563430788,-0.42870483600000003,-0.79659118,-51.7557526,38.75747775,-117.4757375,9.909114710243566,1.0691979425311922,134.0946381734354,18.20264062500018,28.624640625000094
41000,41000.0,0.407421115,-7.238246875,-1.20238115,0.1865043625,-0.6237487625,-0.4281692475,-53.440170499999994,37.2612774,-116.50573700000001,7.349347362948313,0.7804114013425608,133.48354000330121,18.15078125000018,28.610781250000095
41100,41100.0,2.343425725,-8.25309,-2.44916535,0.311943055,-0.1337280275,0.010978698799999999,-53.7644194,37.240905600000005,-116.678467,8.928503325958326,0.3417127721267056,133.75861305300842,18.09892187500018,28.5969218750001
41200,41200.0,4.342884,-9.9475825,-3.57084655,0.3926391575,-0.389663695,-0.0015335082500000027,-53.752136,37.200928000000005,-117.24396000000002,11.426759603251293,0.5576607114664609,134.23616250886076,18.04706250000018,28.5830625000001
41300,41300.0,1.2184601025,-6.8384095,-2.7197074850000003,0.02432250975000001,-0.341194156,-0.2934150725,-54.2330169,36.524505100000006,-116.75964350000001,7.548143822497803,0.5119871671363063,133.82106209539387,17.995203125000177,28.5692031250001
41400,41400.0,2.443386025,-14.407974,-4.71707905,0.609153745,-0.0834045405,0.7129859949999999,-52.5692735,37.96638495,-119.5703895,15.396707233628467,0.9433364765791871,136.02260122308334,17.943343750000178,28.5553437500001
41500,41500.0,-1.73090745,-7.90802385,1.8104210175,0.42726135,0.7467117175,0.2168426525,-51.9560242,38.9053342,-123.15010249999999,8.366985354865635,0.9112090023516296,139.20850732215678,17.891484375000182,28.541484375000106
41600,41600.0,1.85746912,-9.642981,1.32667689,0.402757259,0.34648742101,0.0902389535,-50.950546100000004,39.31755155,-125.374606,9.918340527447745,0.5780862252339214,140.92774001530208,17.839625000000183,28.527625000000103
41700,41700.0,1.85171815,-9.966319300000002,0.551905823,0.764207462,-0.026245117200000008,-0.07561950619999999,-50.79651,39.2815397,-127.316359,10.176960542925027,0.7735303540347078,142.59309413393984,17.787765625000183,28.513765625000104
41800,41800.0,1.38916626,-9.249971,1.04043734,0.15167846499999998,0.39421386700000005,-0.051982118499999994,-50.8000178,38.5860444,-128.57635349999998,9.412082306198927,0.42626511823587465,143.53190015496514,17.735906250000184,28.499906250000105
41900,41900.0,1.66557619,-9.5529524,0.5162323,0.255004883,0.457806392,0.184835816,-50.3649914,38.887023600000006,-130.74981599999998,9.71451862530801,0.5558171681330509,145.4111003020873,17.684046875000185,28.486046875000106
42000,42000.0,2.11819767,-9.201135,0.608886719,0.156048581,0.236981203,0.19431763,-49.0066528,38.885802000000005,-132.322078,9.4624118934751,0.3446373263019759,146.36561104218387,17.632187500000185,28.47218750000011
42100,42100.0,2.22257993,-9.5765384,1.54849545,0.09990081880000001,0.257218934,0.247369382,-48.27857845000001,39.431152399999995,-133.3692915,9.952364248003187,0.3709143424529782,147.21760296891776,17.580328125000186,28.45832812500011
42200,42200.0,1.62487486,-9.5555874,0.693519605,0.123770136,0.59065096,0.139776613,-47.0419296,39.3592835,-134.92774899999998,9.718825965745706,0.6199146257293705,148.21494464665295,17.52846875000019,28.44446875000011
42300,42300.0,3.10287172,-11.16892005,1.244730375,-0.2995155305,0.32438202400000005,0.182966613,-45.739669799999994,39.5491021,-135.744935,11.659933301147275,0.4836056922988156,148.60333524710794,17.476609375000187,28.43060937500011
42400,42400.0,1.582187615,-9.81661375,-1.6677017,-1.269119265,-0.3843360855,-0.378266915,-45.4137418,40.063477,-133.7332145,10.083173465159113,1.380201206981575,146.8063178107349,17.424750000000188,28.41675000000011
42500,42500.0,-0.53170317,-11.16479015,0.11795730549999996,-1.572077915,-0.2129348725,-0.486123653,-46.892165500000004,40.16571075,-126.73652675,11.182488304872868,1.6601859934573804,140.97646957906,17.37289062500019,28.40289062500011
42600,42600.0,1.317030355,-9.84725915,-0.38626707950000005,-0.670550545,-0.2436706495,-0.4807464605,-47.6995085,40.20927435,-123.7556435,9.943726764328993,0.8660141288098415,138.591231541416,17.32103125000019,28.38903125000011
42700,42700.0,0.473682415,-7.734977099999999,-1.37243347,0.216661834,-0.45954362,-0.408147423,-49.0499874,39.165649200000004,-122.6623512,7.872018536455133,0.6537551795003652,137.78937496362565,17.26917187500019,28.375171875000113
42800,42800.0,1.21816026,-8.3911719,-2.73550873,0.266139222,-0.4560256945,-0.16601181250000002,-49.8257446,38.694763200000004,-122.277224,8.919877744001203,0.5635734477679433,137.59221478111263,17.217312500000187,28.361312500000114
42900,42900.0,2.96418452,-9.0153414,-2.76094664,0.21100769,-0.0669403056,0.0281311034,-49.5785524,38.754882,-123.3386228,9.887191233351151,0.24456524788649375,138.4644823406548,17.165453125000187,28.347453125000115
43000,43000.0,3.45523686,-7.6080289200000015,-3.16628724,-0.08428039616,-0.72080382,-0.514938358,-50.1553346,38.2434084,-122.44872920000002,8.941395970864734,0.8930382107455057,137.73840583584766,17.113593750000188,28.33359375000012
43100,43100.0,-0.29552003679999994,-9.389312599999998,-1.8628906000000003,0.882559196,0.08602905289999999,0.5688629399999999,-49.7348026,38.6434936,-123.39508,9.580837329832946,1.0586221539677734,138.5402991197692,17.061734375000192,28.31973437500012
43200,43200.0,1.714178496,-9.005285599999997,-1.937103248,0.05632934480000001,0.8018921040000001,0.0340911864,-48.0331424,39.060668799999995,-126.007386,9.559634161736954,0.8070490118876892,140.39539229164177,17.009875000000193,28.305875000000118
43300,43300.0,2.84352416,-9.8229032,-0.34065246200000004,0.556799324,0.23857422,0.38137206799999995,-46.74102780000001,39.575195,-128.323056,10.24151864098508,0.7211904728886197,142.18919917232753,16.958015625000193,28.29201562500012
43400,43400.0,0.916665656,-10.0491606,0.93282168,0.547845464,-0.496881104,0.183871458,-46.437072799999996,39.466554,-129.988404,10.151471204618923,0.7628772233931231,143.5653131352401,16.906156250000194,28.27815625000012
43500,43500.0,2.1179504736842105,-9.533056,-0.15140412736842104,0.32953282526315786,0.14158068052631578,-0.2516656163157895,-46.3854984,38.906249200000005,-131.82770000000002,9.767818225835686,0.4467385287356432,145.0650600702199,16.854296875000195,28.26429687500012
43600,43600.0,1.61709139,-9.47107285,1.15800094,0.165149686,0.2815101635,0.08905944985,-46.465149,38.1716916,-132.733458,9.681501493473432,0.34126420914495703,145.71997079468974,16.802437500000195,28.250437500000118
43700,43700.0,1.57081984,-9.5717552,0.639292165,0.3287704535,0.3018005375,0.2511383075,-45.595092,38.2296756,-134.19586199999998,9.721018537798606,0.5131071390311099,146.79572414244032,16.750578125000196,28.23657812500012
43800,43800.0,2.257597365,-9.53511795,1.3515167,0.1837356585,0.2662780785,0.1530883775,-44.3958285,38.4807585,-135.936735,9.891538097555632,0.3585804725350708,148.08968651618926,16.698718750000197,28.222718750000123
43900,43900.0,2.04283221,-9.64633725,0.929835515,0.09878997825,0.3469718865,0.1726852405,-43.424988,38.6680605,-136.76757750000002,9.904909800482686,0.4002313092885336,148.61472798611126,16.646859375000197,28.208859375000124
44000,44000.0,2.51323693,-9.7401254,1.139328005,-0.04385452265,0.3753059405,0.18275375600000002,-42.2813415,38.900757,-137.28561000000002,10.123752032615196,0.4197534519934996,148.8234761129913,16.595000000000198,28.195000000000125
44100,44100.0,2.59338226,-10.41720525,1.44954833,-0.130618282,0.061745452985,0.11356659,-41.1605835,39.06059125,-137.5225075,10.832917451593987,0.1919175070813703,148.7695428739489,16.543140625000202,28.18114062500013
44200,44200.0,0.427169795,-10.3944015,-1.72042845,-0.60977936,-0.16569519,-0.180229185,-41.5222175,39.3894195,-136.322405,10.549257937064407,0.6632691029137969,147.84933441476258,16.4912812500002,28.16728125000013
44300,44300.0,-0.1635971,-10.8804245,-0.75376894,-1.62017825,-0.37501526,-0.504074095,-42.60101325,40.13443125,-132.00073,10.918354219160989,1.738276219962242,144.39522191543796,16.4394218750002,28.153421875000127
44400,44400.0,0.63067629,-10.9199295,-0.393440265,-1.32403565,-0.17367554,-0.33735657,-43.8163755,40.685654,-126.315308,10.979110884998029,1.3776010099309886,139.75299537813174,16.3875625000002,28.139562500000128
44500,44500.0,0.98442075,-7.573432899999999,-0.22406006500000006,-0.315231325,-0.333999635,-0.5892944250000001,-45.479583,39.85366775,-123.49472250000001,7.642535706716082,0.7586392645285263,137.5052621298685,16.3357031250002,28.12570312500013
44600,44600.0,0.041107179,-7.30168915,-1.3630905,0.34310151,-0.18167114,-0.2047348,-46.7185985,39.2681135,-123.0857865,7.429568093951848,0.4453576725613599,137.385412231204,16.2838437500002,28.11184375000013
44700,44700.0,3.0440368500000003,-9.3283845,-3.49692535,0.27971649,-0.15610504,0.12602997,-46.284485,39.62211625000001,-123.62480149999999,10.41786398529096,0.35104697803856816,137.82329629672884,16.231984375000202,28.097984375000127
44800,44800.0,4.435126599999999,-9.996063000000001,-3.732633165,0.1847000135,-0.2911254865,-0.26455613,-46.651840500000006,39.17732175,-124.28169375,11.556183662463706,0.4398154719668943,138.40962789163342,16.180125000000206,28.084125000000128
44900,44900.0,-0.3286766145000001,-8.03689415,-1.56289367,0.49576034,-0.025718688000000003,0.0997154255,-47.47505200000001,38.471222,-123.921205,8.208058632378652,0.5315716240186282,138.16819899975098,16.128265625000203,28.07026562500013
45000,45000.0,3.08353805,-13.2927626,-4.50901565,0.25085449600000004,0.14067459127999998,0.3025390645,-46.050643750000006,39.1105655,-126.01318500000001,14.38495004386077,0.4541505625186877,139.7485277939918,16.076406250000204,28.05640625000013
45100,45100.0,-0.3894317595000001,-8.168269335,1.204324324,0.39402923100000004,0.6052986300000001,0.273944093,-45.30525225,39.1624445,-127.949905,8.363857719377679,0.7904269081152536,141.2708317320886,16.024546875000205,28.042546875000127
45200,45200.0,1.4350639749999998,-9.5220763,0.45147399950000006,0.5608405949999999,-0.027737425500000024,0.03910141035,-44.56443825,39.31045625,-130.5282575,9.650355246664155,0.6384500197639781,143.41877809344194,15.972687500000205,28.028687500000128
45300,45300.0,1.890689125,-9.90819385,0.023449706749999997,0.6678535485,-0.07141799780000001,-0.1371498075,-44.66438275,38.441085,-131.8210575,10.093510504825671,0.6894532365433629,144.3933217872862,15.920828125000204,28.01482812500014
45400,45400.0,1.330268825,-9.13373025,0.5854217365,0.171546173,0.46814117899999996,0.026853179825,-45.03479,38.30528200000001,-132.6034575,9.256284957387695,0.5012011959706527,145.18668638067382,15.868968750000207,28.000968750000137
45500,45500.0,1.80011898,-9.3708804,0.3359497076,0.40851135,0.20917663600000003,0.2405426,-44.355775,37.786865,-134.1270475,9.55369510706141,0.5196452097471244,146.23761736420838,15.817109375000207,27.987109375000138
45600,45600.0,2.61223758,-9.468085,0.6167877279999999,0.271307376,0.048745727999999995,0.301690672,-43.394011799999994,37.9954532,-135.56518799999998,9.842847301165305,0.4089290918737533,147.32519150201884,15.765250000000208,27.97325000000014
45700,45700.0,1.43046266,-9.5928254,0.946469108,0.09489746199999999,0.278848268,0.168533326,-42.4761967,37.74444570000001,-135.714417,9.745665830346098,0.3401755071399569,147.13019063268962,15.713390625000207,27.95939062500014
45800,45800.0,2.2291626,-9.6620148,1.133941664,0.09042358199999999,0.66766664,0.18195496,-41.534504315789476,38.10938789473684,-136.62085789473684,9.985306255061504,0.6979448045835995,147.79309992749995,15.661531250000207,27.945531250000137
45900,45900.0,3.46983644,-12.0023496,1.36210632,-0.0983398456,-0.12851257028000002,-0.027044679999999998,-40.619354,38.1083676,-136.911164,12.584687640443844,0.19484042821596004,147.80692810706344,15.60967187500021,27.931671875000138
46000,46000.0,0.8438751,-9.828171000000001,-1.17622684,-1.35279848,-0.385455328,-0.387326056,-41.582184000000005,38.3020021,-134.414521,9.935623982535496,1.4590206269303343,145.81992226018033,15.55781250000021,27.917812500000142
46100,46100.0,0.018418881,-11.463652925,-0.1389442419,-1.484354405,-0.048028563450000006,-0.395152285,-43.2745359,39.016723600000006,-128.909605,11.470385319476929,1.5394527530166844,141.46655641640052,15.505953125000213,27.903953125000143
46200,46200.0,1.5039627,-9.505077,-0.010313409499999926,-0.600565337,-0.1571121221,-0.5887145945000001,-44.662018200000006,38.5990911,-124.5358298,9.63867300799113,0.8711287046426658,137.8185487984597,15.454093750000212,27.890093750000144
46300,46300.0,0.191224673,-7.57714075,-1.490829485,0.07274017320000001,-0.7049865805,-0.425033568,-46.483766,37.2976689,-123.494722,7.725836965880059,0.8294523737455969,137.12371494213693,15.402234375000212,27.87623437500014
46400,46400.0,2.45823057,-9.024560099999999,-3.211895675,-0.16018295349999995,-0.559194937,-0.027474212250000005,-47.1719361,36.9515994,-121.3288878,9.899157228769448,0.5826363301732825,135.31935725524067,15.350375000000213,27.862375000000142
46500,46500.0,2.08102803,-7.70923843,-2.008092495,0.3775131215000001,-0.13724517825,0.12672424675000002,-46.742707200000005,37.005767600000006,-121.34262199999999,8.234281050104089,0.4216562487310224,135.1975704170705,15.298515625000212,27.848515625000147
46600,46600.0,2.748642685,-9.969125300000002,-4.90621031,0.57586058,-0.246649935,0.0441688525,-46.3247679,37.342376,-122.94158700000001,11.446688224689414,0.6285035523492966,136.58359722756632,15.246656250000214,27.834656250000148
46700,46700.0,-0.003726197300000012,-11.071781049999998,-1.43450776,0.533409118,0.8273429959999999,0.43890380549999997,-46.0818479,37.4345398,-124.78485,11.1652557593268,1.0799496128477135,138.18886862987708,15.194796875000215,27.82079687500015
46800,46800.0,0.405502332,-7.40416111,2.30074768,0.386038218,0.915982057,-0.06688537800000001,-45.464935600000004,37.6904294,-125.97457949999999,7.87559027269065,0.9981759357942724,139.13029730650678,15.142937500000215,27.80693750000015
46900,46900.0,2.58853607,-10.349146800000002,0.294651782,0.33692779300000003,0.50308228,0.14637451,-44.73922750000001,37.6898194,-128.690795,10.682634199678509,0.6285757618248193,141.36289907744464,15.091078125000214,27.793078125000147
47000,47000.0,2.86829678,-10.1890943,0.87643585,0.610798651,-0.289047237,0.166404722,-44.6400449,37.6380908,-130.191653,10.623857062342019,0.6970189643591161,142.68590859101886,15.039218750000215,27.779218750000148
47100,47100.0,1.10820465,-9.0943432,-0.34052885800000005,0.293463133,0.009326172500000007,-0.19216613899999999,-45.308532799999995,37.212067499999996,-131.405641,9.175425965523447,0.3681853536478839,143.89255299236402,14.987359375000215,27.76535937500015
47200,47200.0,2.06684422,-9.6289723,0.980345165,0.30389862,0.16783905100000002,0.226379393,-44.657897999999996,36.9940185,-132.23404100000002,9.899727971226776,0.4144789795702568,144.39089623170415,14.935500000000218,27.751500000000156
47300,47300.0,1.50958256,-9.69899915,-0.195440671,0.227633663,0.39048767,0.179927065,-43.8568114,36.884004100000006,-134.105839,9.818422410122377,0.4870945785037061,145.8364261576729,14.883640625000217,27.737640625000157
47400,47400.0,2.3467254000000004,-9.58066975,1.30554195,0.14496994000000002,0.194896695,0.1720962525,-42.97892333333333,37.085978,-134.57845,9.954360450527638,0.29911099315232376,146.06148732163302,14.83178125000022,27.723781250000158
47500,47500.0,2.0468483,-9.62077725,0.544483185,0.10768127300000001,0.37252808,0.281562805,-41.65245075,37.365188700000004,-135.64330800000002,9.85290444801224,0.4800020229534544,146.73174496339746,14.779921875000221,27.70992187500016
47600,47600.0,3.291538225,-10.51051725,1.325298275,0.0075416562500000015,0.179454805,0.2421455375,-40.28640765,37.7384183,-136.314165,11.09337593825285,0.30419806855181203,147.06712744266991,14.728062500000222,27.696062500000163
47700,47700.0,0.575912475,-11.2539175,-2.710433975,-0.575683595,-0.45038604,-0.352275845,-40.716857700000006,38.14796555,-135.1863845,11.625476327320975,0.8145453416258864,146.24839863861973,14.676203125000221,27.68220312500016
47800,47800.0,-1.694690725,-10.69965725,0.22814939999999995,-1.974380475,-0.3843383775,-0.57384491,-42.83622705,39.397125,-128.8593295,10.850277202062836,2.094165281592705,141.39350024162556,14.624343750000222,27.66834375000016
47900,47900.0,2.1046028,-10.858574,-0.3979301375,-1.109115575,-0.371021265,-0.5498809825000001,-44.55703755,39.030913899999994,-122.8184524,11.080361861427178,1.2940666236837548,136.35680584834802,14.572484375000222,27.654484375000163
48000,48000.0,0.8916435500000001,-7.0520974,-0.759151455,0.02885437249999999,-0.5553131125,-0.6388282875,-46.52503925,38.11851445,-120.5617505,7.153054231636377,0.8511254417379706,134.73237012240833,14.520625000000225,27.640625000000163
48100,48100.0,0.98777462,-8.9518984,-3.19142764,0.0689025876,-0.9969146999999999,-0.179598998,-47.75329575,37.55920345,-119.76959209999998,9.557499972582004,1.016886222076816,134.29774618410374,14.468765625000223,27.62676562500016
48200,48200.0,1.6603058000000002,-7.10380552,-1.64908756,0.214630128,0.24284363399999997,0.17705078200000002,-47.7697756,37.6143645,-119.24415625,7.4805158728924175,0.3760207300319123,133.85067787048834,14.416906250000224,27.61290625000016
48300,48300.0,5.163504199999998,-12.790042,-5.66678772,0.64456786,-0.41634826799999997,0.121878054,-46.855849,38.53187575,-121.45347450000001,14.917023783005268,0.7871897215389976,135.76158937267564,14.365046875000225,27.599046875000163
48400,48400.0,-2.80631406,-10.8186524,1.66137694,0.480307026,0.8012481640000001,0.5882537800000001,-47.20344475,38.6089315,-122.4256145,11.340983605307507,1.1554146222386268,136.77355993556458,14.313187500000224,27.585187500000163
48500,48500.0,0.03320007200000008,-7.256555240000001,1.9836365,0.397857666,1.47940062,-0.0400421144,-46.4772794,38.83010805,-124.09530900000001,7.671110252254372,1.5326675914569856,138.08534219018614,14.261328125000224,27.57132812500016
48600,48600.0,4.03847054,-10.6625522,0.08336182400000003,0.31689148,0.57371218,0.373284908,-44.99359145,39.3415068,-126.1775216,11.421151475132275,0.7619846727875692,139.617276928046,14.209468750000227,27.55746875000016
48700,48700.0,2.3898178100000003,-10.27917965,0.7971977159999999,0.5747398375,-0.23179320800000006,0.213172155,-44.7800455,39.49523885,-127.933655,10.590451773877547,0.6567688629392757,141.18128957622073,14.157609375000227,27.543609375000173
48800,48800.0,1.6012817250000002,-9.37260795,-0.36488876,0.2905899055,0.07320022679999999,-0.133195493,-44.92004420000001,39.00199875,-129.831845,9.516046998060103,0.3335046723771664,142.8120520781039,14.105750000000226,27.52975000000017
48900,48900.0,1.639838425,-9.49675815,0.8664993209999999,0.224542235,0.2256843555,0.1437126145,-44.91821305,38.72169555,-130.62339550000002,9.676451231389136,0.3495262315129051,143.455529671613,14.053890625000227,27.51589062500017
49000,49000.0,1.575252525,-9.48059405,0.35617599450000004,0.2501640285,0.22995071600000003,0.3013214125,-44.04846075,38.87832625,-131.9850935,9.617664695935618,0.4549792418033966,144.47098050050408,14.002031250000227,27.502031250000172
49100,49100.0,1.80240553,-9.78651085,0.658749386,0.18001174649999999,0.19788132,0.2088600135,-42.91008100000001,39.25796535,-132.46650549999998,9.973721792400218,0.3405271513513979,144.67173931476657,13.950171875000231,27.488171875000173
49200,49200.0,1.706339245,-9.379615800000002,0.5298827995000001,0.07535019174999999,0.6177589475,0.149246976,-41.943940952380956,39.04615066666667,-133.6745495238095,9.548890080268851,0.6404706198949413,145.44020718563453,13.898312500000232,27.47431250000017
49300,49300.0,3.75019687,-11.0735142,1.72817379,-0.1419052114,0.20449524100000002,0.17716827,-40.7562252,39.129332399999996,-134.1391,11.818508331255147,0.3078399075046544,145.5524475963611,13.846453125000231,27.46045312500017
49400,49400.0,0.463562014,-10.7024137,-2.76646274,-0.8687377889999999,-0.57155455,-0.403829945,-41.4532462,39.3365472,-132.9422,11.067731919831145,1.1185277439448822,144.70550422015248,13.794593750000232,27.446593750000172
49500,49500.0,-1.52051088,-10.65082245,0.19960632399999997,-1.95797122,-0.32665252,-0.47828827,-43.465577200000006,39.2993164,-126.27776999999999,10.766265339628413,2.0423793871767963,139.21160490189249,13.74273437500023,27.432734375000173
49600,49600.0,2.25837252,-10.201905900000002,-0.7639434649999999,-0.88493804,-0.473762515,-0.55702364,-44.448547600000005,38.885498,-121.103514,10.478997856288991,1.1503447060015148,134.73614492210527,13.690875000000231,27.41887500000017
49700,49700.0,0.64887848,-6.38627014,-1.034844936,0.312854003,-0.634727474,-0.5799225,-46.348877,37.5100708,-120.153806,6.505794534092653,0.91699274799499,134.1352175446327,13.639015625000232,27.40501562500017
49800,49800.0,1.3985000200000002,-9.189760099999999,-3.10523985,0.1000152585,-1.04187316,-0.266311647,-47.0669564,36.9836426,-120.056152,9.80100188131321,1.0807145710909496,134.1514010392088,13.587156250000234,27.391156250000176
49900,49900.0,2.36599125,-8.38255505,-2.13450161,0.17361755699999998,-0.021447754100000008,0.083529663,-47.259827,36.9448854,-119.603272,8.968273112621931,0.20046836235277665,133.80345535635888,13.535296875000233,27.377296875000177
50000,50000.0,3.832441695,-9.55846805,-4.4016432499999985,0.22123946949999998,-0.4132011450000001,-0.23311919899999997,-47.102662,36.9238282,-119.44854640000001,11.199553475638547,0.5247403138074345,133.603901265605,13.483437500000234,27.363437500000177
50100,50100.0,-1.18592225,-8.5799501,0.18026810149999994,0.6117118585,0.46233215299999997,0.565875233,-46.764526,37.1023556,-121.66320800000001,8.665346716909566,0.9551214052628496,135.5192627262793,13.431578125000234,27.349578125000182
50200,50200.0,1.1281387049999996,-8.022047500000001,0.6829940815000004,0.241205594,1.5556175250000002,-0.26593017550000003,-46.07605,37.504882,-123.766176,8.190790026845981,1.5968831665163048,137.28687565472038,13.379718750000233,27.335718750000183
50300,50300.0,2.671380585,-10.91304265,-0.74737093,0.453305818,0.655838011,0.498706821,-45.2142332,38.096924200000004,-126.0705568,11.2705992006116,0.9449227891348564,139.2465850311754,13.327859375000234,27.32185937500018
50400,50400.0,2.089766665,-9.8790515,1.25968625,0.48254089450000004,-0.374113467,0.1287406955,-44.5800778,37.780456,-128.155824,10.177022276021713,0.6245354176255152,140.84988058745182,13.276000000000238,27.30800000000018
50500,50500.0,1.259390255,-9.09374485,-0.17358932100000002,0.393709569,0.08879394525,-0.07641983375,-44.7436528,37.41088920000001,-129.86541599999998,9.182398752614404,0.4110024212325827,142.36136220300466,13.224140625000238,27.294140625000185
50600,50600.0,2.7142334,-9.435516,0.7922821,0.30581665,0.27586365,0.20751953,-44.26422,37.3376466,-131.34490599999998,9.850062744059652,0.4611821030135124,143.5443463650175,13.17228125000024,27.280281250000186
50700,50700.0,1.5554351999999998,-9.550446,0.24879456,0.34310913,0.21194458,0.32789612,-43.200684,37.359008,-133.259888,9.679478095093797,0.5197694157910676,144.98343646861642,13.120421875000241,27.266421875000187
50800,50800.0,2.3275757,-9.799438,0.86291504,0.19929504,0.25242615,0.2682495,-42.0739748,37.7340696,-133.939822,10.108967114464894,0.4188021829249152,145.37546596314922,13.06856250000024,27.252562500000185
50900,50900.0,2.0857544,-9.494186000000001,0.75875854,0.024597168,0.7232666,0.20539856,-40.500488399999995,37.938234,-135.108336,9.750161729004203,0.7522686779331264,146.06127625145785,13.016703125000241,27.238703125000185
51000,51000.0,3.1176605,-12.51207,-0.22764587,-0.16822815,-0.18006897,-0.11418152,-39.76801815789474,38.10320384210526,-135.16299789473686,12.896647832684595,0.2715933797403644,145.95352067950634,12.964843750000243,27.224843750000186
51100,51100.0,0.027938842999999998,-10.236388999999999,-1.2547607,-1.8651886000000002,-0.30470276,-0.5179291,-41.5047456,38.31466665,-131.115264,10.313043428228822,1.9595976214897757,142.76627610509112,12.912984375000244,27.21098437500019
51200,51200.0,1.3279877,-11.251526,1.1633911,-1.598877,-0.06289673,-0.22071838,-42.339172,39.0612792,-125.175094,11.389199599251326,1.6152647656169308,137.79412366138465,12.861125000000243,27.19712500000019
51300,51300.0,0.8790741,-7.9211884,-0.24560547,-0.37168884,-0.15237427,-0.53816223,-43.57978765,38.7380983,-122.15576399999999,7.973601381338253,0.6715572185131743,135.35837711544121,12.809265625000243,27.183265625000193
51400,51400.0,0.056671143,-8.576004,-1.7180328,0.36120605,-0.34518433,-0.14933777,-44.456024600000006,38.39706385,-122.1453865,8.746581785379975,0.5214631355932309,135.5366350324829,12.757406250000242,27.16940625000019
51500,51500.0,2.9596405,-9.131454,-3.6657257000000003,-0.04145813,-0.03945923,-0.33149720000000005,-45.037536100000004,37.55897565,-122.28363055,10.275235712673297,0.3364018445001897,135.61843824008943,12.705546875000243,27.15554687500019
51600,51600.0,1.8104248,-7.8661194000000005,-2.3046112,0.30262756,-0.5593109,-0.032165527,-45.49148555,37.36267,-122.42561450000001,8.394325771297945,0.636747001608607,135.84365210201662,12.653687500000244,27.14168750000019
51700,51700.0,1.6248778999999998,-9.121887,-3.7471160000000006,0.6381836,0.030853271,0.048797607,-45.444717499999996,37.5657658,-123.3728805,9.994494932118052,0.6407896988008515,136.73817364712954,12.601828125000242,27.127828125000192
51800,51800.0,2.613854935,-14.18460435,-6.14796598,0.19998702875,-0.1208419798,0.316876222,-44.2335514,37.93777385,-125.48995900000001,15.689891869231491,0.4001617136518147,138.36050340409227,12.549968750000248,27.113968750000197
51900,51900.0,-1.2777366300000002,-8.24973675,0.97262421,0.6375480729999999,0.3798851015,0.341371159,-43.5742954,38.26972955,-127.69546470000002,8.433031711269901,0.8176419458680886,140.24777391326398,12.498109375000247,27.100109375000194
52000,52000.0,1.11101376,-9.36807285,0.7588264299999999,0.4259773240000001,0.188771818,0.15623397600000002,-42.2132874,38.4199525,-130.18813899999998,9.465550456948275,0.5055509159212831,142.15140396990014,12.446250000000248,27.086250000000195
52100,52100.0,2.73464128,-10.0987823,0.28567504000000005,0.6492591895000001,0.073194124,-0.104277805,-41.93519565,38.0437471,-131.43158300000002,10.46920180168416,0.6632228683482944,143.1092283941685,12.394390625000248,27.0723906250002
52200,52200.0,0.29812927300000003,-8.9726058,0.8836257959999999,0.19194641199999998,0.22473145,-0.0071273803000000005,-42.1844488,37.57843,-132.78473200000002,9.021888983030736,0.2978544646516881,144.3034747405704,12.342531250000247,27.0585312500002
52300,52300.0,2.06456914,-9.5855257,0.426936342,0.294955444,0.21578674,0.170350643,-41.2902834,37.5772096,-133.704834,9.814786523838977,0.40333183408873824,144.89296185814584,12.29067187500025,27.0446718750002
52400,52400.0,1.80574799,-9.4139725,0.563041683,0.159986878,0.125767521,0.20453796,-40.60765284210526,37.752974421052635,-135.03755526315788,9.605029441983216,0.2897019523108019,145.97758363351906,12.23881250000025,27.0308125000002
52500,52500.0,1.10665133,-9.782687199999998,0.21935730200000006,0.128562921,0.375460828,0.1140960696,-39.852371500000004,37.4737545,-135.8509035,9.848338620084,0.4142638012838304,146.45126397965558,12.186953125000253,27.0169531250002
52600,52600.0,2.961593605263158,-9.705180789473683,0.7505822426315789,-0.075546265,0.54379835,0.17511066736842107,-38.259963799999994,37.82562215,-136.1943035,10.175088918820103,0.5763376970158471,146.43635732218203,12.135093750000253,27.0030937500002
52700,52700.0,3.200132745,-12.71611145,-0.844505315,-0.370784001,-0.20861358300000002,-0.1299056995,-37.31117235,38.49205050000001,-136.12632549999998,13.152125853434848,0.4472262980631335,146.30171897072933,12.083234375000252,26.9892343750002
52800,52800.0,-0.90442809,-9.599649699999999,-0.7897392025000001,-1.81470033,-0.721007541,-0.636703475,-39.36752325,40.17784145,-131.047057,9.684609879933042,2.0546026827811907,142.61058962044982,12.031375000000253,26.9753750000002
52900,52900.0,1.43794557,-11.0024083,0.11244964974999999,-1.278064735,-0.089582823,-0.3027458195,-40.48683155,40.9967815,-125.330125,11.102426498595369,1.3188332740734945,137.9404731100599,11.979515625000253,26.961515625000207
53000,53000.0,0.7582901,-8.3547259,-0.629274005,-0.217388917,-0.5498306175,-0.5069518795,-41.97517415,41.4365386,-123.1340025,8.417335015625032,0.7812023775584648,136.53191038596654,11.927656250000256,26.947656250000204
53100,53100.0,1.57142262,-8.546792349999999,-2.60179974,0.045571899000000006,-0.3519569375,-0.187641147,-43.24600245,40.99899275,-122.0572658,9.07262809803746,0.4014946572449635,135.82761035930358,11.875796875000255,26.933796875000205
53200,53200.0,1.219232955,-7.740367825,-2.11577149,0.34656448300000003,0.11697616300000001,-0.12649154740000002,-43.74695,41.140747,-122.41973999999999,8.116649968171261,0.3892324292269398,136.35596591160984,11.823937500000255,26.91993750000021
53300,53300.0,4.177932075,-9.471616699999998,-3.6427346,0.35472030600000004,-0.465502927,-0.14939422300000002,-43.7969961,41.3250745,-123.21998625,10.976586766315869,0.6052175862935807,137.14631929674238,11.772078125000256,26.90607812500021
53400,53400.0,1.075823225,-7.85552976,-2.362970795,0.336502842,-0.15813064999999998,-0.032317352,-44.14589015,41.62056015,-123.3597595,8.275614013634861,0.37928602347168816,137.47278158310058,11.720218750000255,26.89221875000021
53500,53500.0,1.639350125,-11.8256577,-3.088471925,0.858052829,0.2826805095,0.4293685925,-43.1129455,42.1775815,-126.38626000000001,12.339379436818714,1.003663828387385,140.04039338558826,11.668359375000255,26.87835937500021
53600,53600.0,-0.14438781444999998,-8.33113665,2.8011436,0.02075805724999999,0.8944099240000001,0.07777099575,-42.614593400000004,42.62054475,-127.64701975,8.798376378527012,0.9073244716857012,141.16048338746603,11.616500000000258,26.86450000000021
53700,53700.0,2.57249144,-9.6265746,1.63551939,0.49118042,0.3144287112,0.28102112999999995,-41.2403106,43.10607915,-130.044627,10.110405965300636,0.6690736134797931,143.07603913756827,11.564640625000257,26.85064062500021
53800,53800.0,2.61032406,-9.9246578,0.6922088632000001,0.6279541000000001,0.01210327136,-0.0046783436000000025,-40.541077,43.056488,-131.651305,10.297884792326874,0.6319297526838861,144.32448380782728,11.512781250000259,26.83678125000021
53900,53900.0,1.23557432,-8.461566,0.93138732,0.147732542,0.237084958,-0.022149658600000004,-40.89203,43.0656435,-133.23593,8.602802132779964,0.2819668640138862,145.8721116042749,11.46092187500026,26.82292187500021
54000,54000.0,1.67251586,-8.8266812,0.1635620128,0.280465702,0.327841184,0.20880432,-40.068817,42.9237365,-134.45282,8.986255479817652,0.4793744600509127,146.71585719487712,11.40906250000026,26.80906250000021
54100,54100.0,2.2564544200000003,-9.4879576,0.09126586800000001,0.22932739,0.25179138,0.281872556,-39.1021735,43.067169,-136.000825,9.75824955657769,0.4442202486764904,147.9189157462034,11.35720312500026,26.79520312500021
54200,54200.0,1.91743778,-9.72019,0.7601959220000001,0.137298584,0.228994748,0.17066040000000002,-37.986755,43.6317435,-136.68518,9.937191868344057,0.3186808623383821,148.4235992809568,11.305343750000262,26.78134375000021
54300,54300.0,2.8332214,-9.6502776,0.8566864040000001,0.014794922,0.57754822,0.18685302399999998,-36.477661,44.192505,-137.062835,10.095474686939372,0.6075242628207294,148.5597553061475,11.253484375000262,26.76748437500021
54400,54400.0,2.52484738,-12.4819,0.11113281199999996,-0.1729126,-0.212667844,-0.1683075,-36.0908505,44.898987,-136.85073500000001,12.75173368873351,0.3226139979377726,148.48135347957398,11.201625000000265,26.753625000000216
54500,54500.0,0.4639854425,-9.588455125,-1.1120033,-1.6042023,-0.5206870975,-0.5573387175,-38.5581965,45.9335325,-131.856535,9.685967199347392,1.777389963820875,144.85544266904645,11.149765625000265,26.739765625000214
54600,54600.0,1.060436225,-11.680686875,-1.00754926,-1.4361496,-0.05464172275,-0.32537842,-40.4835521,46.72798220000001,-124.52781570000002,11.786586135263187,1.4738944241826994,139.03117379484067,11.097906250000264,26.725906250000214
54700,54700.0,1.3501396,-8.28300875,0.2580757175,-0.3770179775,-0.39286041,-0.7213898,-43.015366,45.959472999999996,-120.76576000000001,8.399976652856349,0.9210741894260248,136.18779071779971,11.046046875000265,26.71204687500022
54800,54800.0,0.08120727600000001,-7.537216075,-1.622573875,0.216339115,-0.621620175,-0.1986084,-44.59930350000001,45.39352405,-119.14169199999999,7.710735220300966,0.6882193293322659,135.07195100404758,10.994187500000265,26.69818750000022
54900,54900.0,2.978492825,-9.104519,-3.9171065,0.0794487005,-0.12707519725,-0.1307029725,-44.72206110000001,45.437316100000004,-119.21066299999998,10.349681284764964,0.2162545972135875,135.18801304495022,10.942328125000264,26.68432812500022
55000,55000.0,2.5514336,-9.03928025,-2.655662525,0.429920205,-0.348381045,-0.006061553875,-45.089264,45.208892600000006,-119.6176925,9.762928847973573,0.5534013568518049,135.5923637805473,10.890468750000267,26.670468750000218
55100,55100.0,1.5611757026315791,-7.758130684210527,-2.945250621052632,0.3429934884210526,0.1095155410526316,-0.07438258421052632,-45.2703085,44.95483395,-120.8265682,8.533061478399995,0.3893539127886932,136.63654028314718,10.838609375000267,26.65660937500023
55200,55200.0,3.4107086000000004,-14.3618285,-5.762681400000001,0.297621156,-0.3705352889,0.4422058110000001,-43.56163,45.72860815,-122.57026599999999,15.85187030146055,0.6715530795499345,137.88474773961963,10.786750000000268,26.64275000000023
55300,55300.0,-2.1956802050000004,-7.1315796800000015,2.08347776,0.54954989,0.7254074110000001,0.38020478399999996,-42.52388015,46.13555915000001,-124.979475,7.921151571897358,0.9971976561962989,139.84541665191816,10.734890625000267,26.628890625000228
55400,55400.0,2.37556766,-10.7856141,-0.583541849,0.6176254320000001,-0.165797421,0.0530578613,-41.1215971,46.64169305,-127.76031299999998,11.094354091072885,0.6417819990536615,142.08856291942737,10.683031250000267,26.61503125000023
55500,55500.0,2.23431245,-9.84265,-0.17473755000000002,0.470718366,0.0475769033,-0.16958313100000003,-41.20414615,46.2813569,-129.679341,10.096214529195565,0.5068151150475657,143.72363887932408,10.63117187500027,26.60117187500023
55600,55600.0,1.34546052,-9.4199645,0.796835361,0.28781738,0.15122222800000001,0.19452515,-41.42074565,46.0560607,-130.983354,9.560192870740133,0.3789861437303579,144.89140578352868,10.579312500000269,26.58731250000023
55700,55700.0,2.04253998,-9.6641663,-0.35250701300000004,0.319454959,0.335519415,0.33130951,-39.7586061,46.128006,-132.35931250000002,9.887229241434095,0.5701198926991079,145.6973492838469,10.527453125000273,26.573453125000228
55800,55800.0,2.883562485,-9.1027861,0.7622390705,0.08546676560000001,0.1944190995,0.2455032325,-38.1283561,46.56471265,-133.70178049999998,9.579367342203124,0.32584697679206515,146.62274634245978,10.475593750000273,26.55959375000023
55900,55900.0,1.630794535,-9.681283800000001,0.88625564,0.13634261949999998,0.310648336,0.152871705,-37.10281345,46.594926,-134.49065900000002,9.857829192951943,0.3723883165895647,147.09003876612385,10.423734375000272,26.54573437500023
56000,56000.0,3.20007323,-11.1633636,0.8514793439999999,-0.11314926300000001,0.09945907515,0.1245407115,-35.9828186,46.77551265,-134.00246,11.646039086188711,0.21926187214602685,146.42189817789395,10.371875000000273,26.53187500000023
56100,56100.0,1.349659765,-10.7627462,-1.703973385,-1.272158855,-0.5332107460000001,-0.4473556405,-36.340715,48.10989369999999,-131.15180949999998,10.985783480796158,1.4503572331132022,144.3471744805552,10.320015625000273,26.518015625000228
56200,56200.0,-0.967868064,-10.62969325,-0.30031051750000004,-1.656506325,-0.206009672,-0.4478775025,-38.04183935,48.52828965,-122.609027,10.713132608120212,1.7303653349405286,137.24157803585803,10.268156250000272,26.50415625000023
56300,56300.0,1.000460035,-9.22836405,-0.17036514989999998,-0.6450866755,-0.17916412199999998,-0.69310226,-39.99237085,48.20030285,-117.54287675,9.286153343207193,0.9701463711885592,133.18886689861003,10.216296875000275,26.490296875000233
56400,56400.0,0.26395938421052634,-7.362838715789473,-1.793140631578947,0.21645154157894736,-0.595529652631579,-0.4487931157894737,-41.84401673684211,47.87999173684211,-115.86520673684211,7.583356401335834,0.7798366209243984,132.16740740392373,10.164437500000275,26.476437500000234
56500,56500.0,2.03787232,-8.7136656,-3.44592888,0.29111634000000003,-0.239514162,-0.08605957,-42.2543334,48.040161,-116.94458200000001,9.590421224920162,0.40328872268353455,133.30163172311552,10.112578125000276,26.462578125000235
56600,56600.0,3.56992188,-9.034259,-2.49567566,0.341400146,-0.41421814,-0.0019104004,-42.2207638,48.5345458,-117.339782,10.030646416192072,0.5386216897962003,133.81670805378187,10.060718750000275,26.44871875000024
56700,56700.0,2.12693176,-7.9784120399999985,-3.48064878,0.39508972,-0.308114628,-0.224124148,-42.250976200000004,49.089966,-118.65936200000002,8.967995880990244,0.5678639071572138,135.1852473545396,10.008859375000275,26.43485937500024
56800,56800.0,0.053561401999999925,-12.8953826,-2.76239316,1.00974426,0.201504518,0.572271724,-41.419067999999996,50.1049802,-122.247926,13.264410695100329,1.1799123700713272,138.45841297099585,9.957000000000278,26.421000000000237
56900,56900.0,-1.83092042,-6.97787474,4.606008900000001,0.172018434,1.2904175,0.1623504644,-40.475464,50.8444216,-123.856812,8.581981685228524,1.3357065584538401,139.87129664764038,9.905140625000278,26.40714062500024
57000,57000.0,2.80066224,-11.8981966,-0.1663543684,0.588113416,-0.17474060200000002,0.22669983,-38.506164,51.54724,-127.02545,12.255296986648323,0.6963793693317302,142.39188143352547,9.853281250000279,26.39328125000024
57100,57100.0,2.1437530600000003,-9.57833515,0.061637876000000015,0.372666169,0.5729652574999999,-0.164089201,-38.5784908,51.2185664,-129.69513,9.818073775995243,0.7086564293658435,144.68059234693726,9.80142187500028,26.37942187500024
57200,57200.0,2.02260436,-9.473764,0.320024122655,0.25127487,0.4125808705,0.08778839150000001,-38.4747314,51.5487672,-131.651912,9.699608175022576,0.4912100820595005,146.52589502190392,9.749562500000279,26.365562500000237
57300,57300.0,2.004050445,-9.2653517,0.5914115965,0.16861953149999998,0.3147956845,0.2682991025,-37.2753904,51.965638,-133.29192999999998,9.498407390219496,0.4480691888747472,147.84048946436897,9.69770312500028,26.35170312500024
57400,57400.0,1.992916105,-9.0150406,0.8826050200000001,0.2150054945,0.1868576025,0.31464080899999997,-35.6838982,52.4533078,-134.436032,9.277180861168638,0.425171772537421,148.65338824057625,9.645843750000283,26.337843750000246
57500,57500.0,2.758763905,-9.8155444,0.275137329,0.1127922055,0.5492607079999999,0.29727478399999996,-33.779602000000004,52.959289600000005,-135.68511800000002,10.2011953646034,0.6359090637634378,149.52024404318863,9.593984375000284,26.323984375000247
57600,57600.0,2.9870506000000003,-11.34274465,0.922583795,-0.0608985901,0.09736938220000001,-0.115357208,-33.2800294,54.05578620000001,-135.915832,11.781315997724164,0.18062681903002506,150.00906762860075,9.542125000000283,26.310125000000248
57700,57700.0,0.713279725,-10.838524000000001,-2.4458694000000003,-1.19620515,-0.393119815,-0.322975155,-35.165710600000004,55.6436168,-132.70599199999998,11.134885236372416,1.3054566203223676,148.1355555456087,9.490265625000283,26.29626562500025
57800,57800.0,-1.578575125,-10.68530275,0.24281311000000005,-1.84121705,-0.155036925,-0.238830565,-37.6199348,56.8490598,-123.568726,10.831469303954457,1.8641129006417811,141.12696414645453,9.438406250000284,26.282406250000246
57900,57900.0,0.73362732,-9.078186,-0.31562805,-1.0294876,-0.0985794075,-0.275039675,-38.81958,56.045228,-115.63567959999999,9.113419475274027,1.0719407306984037,134.23802515746627,9.386546875000283,26.268546875000247
58000,58000.0,1.2040863000000002,-7.207717799999998,-1.2583465500000002,0.05228424,-0.482070925,-0.46092987,-41.051636,55.859680000000004,-113.45886000000002,7.4281228586917285,0.6757370354613101,132.96049281981942,9.334687500000284,26.254687500000248
58100,58100.0,1.2124634,-9.08477,-3.38021085,0.28451538,-0.21309662,-0.10193634,-42.1685794,56.02050799999999,-113.93951399999999,9.78149448598553,0.37792527188765546,133.78604444618867,9.282828125000288,26.24082812500025
58200,58200.0,1.8726653999999998,-8.9578785,-3.13002015,0.403823855,0.166137697,-0.018852233899999998,-43.3576969,56.54487655,-116.34735,9.672062411384168,0.4542130793835524,136.43303659885842,9.230968750000287,26.226968750000246
58300,58300.0,3.17391965,-8.457488999999999,-3.5208741000000003,0.034706115499999995,-0.37395477,-0.34322358,-44.19425925,56.58355649999999,-116.49047975,9.695819404257584,0.5088133105097258,136.83900079500168,9.179109375000287,26.213109375000247
58400,58400.0,-0.953564475,-9.42354725,-1.29294965,0.6496879465000001,0.510058582,0.4852325365,-44.70443695,57.033157200000005,-118.07212875,9.561716736303977,0.96339498259657,138.5363952655895,9.127250000000288,26.199250000000248
58500,58500.0,2.03050837,-8.255959285,0.02404099500000001,0.2640609675,1.2025360225,-0.04723510745,-43.743286299999994,57.896347,-120.713118,8.808251053956292,1.2334254362120969,140.84449906781603,9.075390625000287,26.18539062500025
58600,58600.0,3.317930635,-10.6048453,0.762894438,0.5785216999999999,-0.07380828800000003,0.3386535665,-43.286819,58.19175735,-124.9356105,11.176598777111977,0.6877000107490294,144.46107234756198,9.023531250000287,26.17153125000025
58700,58700.0,-0.06740951735,-9.36632835,0.25711822079999996,0.5985015905,0.33078155499999995,-0.0742881775,-43.2656864,58.021544999999996,-128.2420375,9.371577417951904,0.6960349466469317,147.2563801796132,8.971671875000288,26.157671875000247
58800,58800.0,1.44542845,-9.04927845,0.715608975,0.2437683145,0.485610968,0.020836639530000003,-43.08334335,57.5830072,-130.0390635,9.199243615805905,0.5443292511253978,148.600656814938,8.919812500000289,26.143812500000248
58900,58900.0,2.190205385,-9.58115015,0.251976769,0.296500397,0.5092071579999999,0.21668853850000003,-42.1240991,57.4103542,-133.1427005,9.831804234560048,0.6283165375572504,150.988310530111,8.867953125000291,26.129953125000252
59000,59000.0,2.3248628157894737,-9.550634736842106,0.18888454042105265,0.11087678421052632,0.4117126452631579,0.1883978610526316,-40.928268700000004,57.87818885,-134.4244415,9.833858728438054,0.4685304808780772,151.97019124142594,8.816093750000293,26.116093750000253
59100,59100.0,1.59039002,-9.48197,0.826522828,0.14411011,0.274154662,0.210504154,-40.0915535,57.941131799999994,-135.81565949999998,9.650679972408668,0.37449657301064093,153.00481058802302,8.764234375000294,26.102234375000254
59200,59200.0,2.594043,-10.125048800000002,0.615115364,-0.06510315,0.42926025,0.28592224,-38.8623814,58.37181045,-136.51603699999998,10.474699969340936,0.521728406109091,153.47387852714382,8.712375000000293,26.088375000000262
59300,59300.0,3.65395808,-11.8366666,0.41854858,-0.66229554,-0.399093624,-0.0402587908,-38.64440845,58.87451,-134.636382,12.395323345685329,0.7809285170843279,151.94317715558986,8.660515625000293,26.074515625000263
59400,59400.0,-1.36285708,-8.9813414,-0.318862908,-1.58821412,-0.55419311,-0.524313358,-42.6023109,58.99833639999999,-127.2943855,9.091748630244386,1.7626558493825326,146.62868153911168,8.608656250000294,26.060656250000264
59500,59500.0,1.71010744,-10.9457794,-0.55038757,-1.18085938,-0.202011104,-0.423114012,-45.4846956,58.19786055,-120.0129685,11.094891532798783,1.2725987430365182,140.92315686980172,8.556796875000295,26.04679687500026
59600,59600.0,1.16182862,-8.967697,-0.2779235816,-0.27645264,-0.57102662,-0.61741638,-48.937758,56.70249955,-115.7605744,9.04796239862722,0.8934490551434475,137.8792296361861,8.504937500000294,26.032937500000266
59700,59700.0,0.8445381165000001,-8.010966849999999,-2.20400314,0.240996553,-0.914196775,-0.503334799,-52.01713525,55.173950100000006,-113.7908925,8.356656423271664,1.071613019376036,136.74213198793205,8.453078125000296,26.019078125000267
59800,59800.0,0.7805557000000001,-8.1607924,-2.252243015,0.2075500475,-0.26156310850000003,-0.3506729080000001,-54.4359593,53.88641355,-112.87490600000001,8.507142979456798,0.4896898055552788,136.41080766754658,8.401218750000298,26.005218750000267
59900,59900.0,3.50977094,-9.104820599999998,-3.775608845,0.456712346,-0.5670814575,0.150313565,-54.6772003,53.918380500000005,-113.23486315,10.470030209207204,0.7443972367535722,136.8171128417646,8.349359375000297,25.99135937500027
60000,60000.0,2.9309715350000003,-8.461142275,-2.5874313200000003,0.1461349505,-0.522720327,-0.226303867,-55.72806900000001,53.76795684210526,-113.25554894736842,9.325262021382462,0.5902695816042784,137.19866713417022,8.297500000000298,25.977500000000266
60100,60100.0,0.21905593950000007,-10.4280418,-2.515727995,0.9413566425,-0.272696683,0.579991894,-54.7068784,54.896241,-114.76363899999998,10.746083095078378,1.1390929457837191,138.48215082352698,8.245640625000298,25.963640625000266
60200,60200.0,0.8548324445000001,-8.003550855,0.6649154649999998,0.063687134,0.98921202,0.04608078014999999,-54.361877500000006,55.4533395,-117.05154499999999,8.30949585147018,0.9931405956999649,140.46857193526031,8.193781250000299,25.94978125000027
60300,60300.0,1.47798308,-10.36699025,-0.23105239749999995,0.632271591,0.16256561349999998,0.21284713449999998,-54.2102062,56.128996900000004,-120.261076,10.490634135005411,0.6874474125080451,143.35948668106016,8.1419218750003,25.935921875000272
60400,60400.0,1.05660858,-9.8875428,1.31865693,0.6266708400000001,0.239646912,0.0005447385999999972,-54.5040897,56.1753846,-123.842013,10.032465482789512,0.6727919987911671,146.50333917092757,8.090062500000299,25.922062500000273
60500,60500.0,0.8307953000000001,-9.078384,1.1689707433333334,0.12969461999999998,0.8159485,-0.07583618266666667,-55.004121,55.7884214,-127.8215002,9.193533072700786,0.8301131066739056,149.92062879771748,8.038203125000301,25.908203125000274
60600,60600.0,2.35180658,-9.47514335,0.5926696765,0.211381533,1.039228815,0.09992981,-54.488372899999995,55.90515129999999,-131.395567,9.780862104996377,1.0652308022747463,152.83751748251586,7.986343750000301,25.89434375000027
60700,60700.0,2.221208145,-9.22944435,0.6908294845,0.1088508605,0.7675300575,0.19388885649999998,-53.477020200000005,55.938568000000004,-133.899384,9.519873887489778,0.7991035039960295,154.65435700518947,7.9344843750003005,25.88048437500027
60800,60800.0,1.68526383,-9.6053345,0.7891738850000001,0.012980651609999998,0.6277130200000001,0.12667312725,-52.052764,56.3816838,-135.339204,9.785148218527251,0.6405757126411129,155.5799059389565,7.882625000000299,25.866625000000273
60900,60900.0,3.088204175,-9.45862735,1.1750007645,-0.0198905948,0.459134679,0.214176177,-50.9213259,56.656036,-136.926725,10.025764847471574,0.5081693961340553,156.69027457614732,7.830765625000299,25.852765625000274
61000,61000.0,3.1274131250000003,-12.9057997,-1.18263552,-0.3763252295,-0.52622298,-0.1619071924,-51.0627739,57.14370699999999,-135.594177,13.36308561836874,0.6706996292351672,155.75212516106873,7.778906250000299,25.83890625000027
61100,61100.0,-0.4856800368421053,-9.530662868421052,-0.19148254431578948,-1.7775051789473684,-0.2889508631578948,-0.1999158394736842,-53.206635,57.5759885,-127.564548,9.559495660844217,1.8119865307149419,149.72949761867753,7.727046875000299,25.82504687500027
61200,61200.0,1.226833325,-10.89388675,-0.4146957375,-1.26330945,0.0359077465,-0.5418968000000001,-55.9169012,56.96762070000001,-118.9851388,10.970789865252392,1.3756261495848916,143.28148174912909,7.675187500000299,25.81118750000028
61300,61300.0,1.52407228,-8.317425799999999,-0.66842348,-0.306713868,-0.665197752,-0.65960388,-58.9549257,54.9034115,-112.92938319999999,8.483513281450213,0.9880549424697096,138.71999654233915,7.623328125000299,25.79732812500028
61400,61400.0,0.24868469,-8.963927850000003,-2.64100036,0.05031127919999999,-0.912491624,-0.265831757,-60.357513399999995,53.4898377,-110.38268899999998,9.350602002161068,0.9530713600755776,136.70604619180028,7.5714687500002995,25.78346875000028
61500,61500.0,1.96628567,-7.90957643,-1.73072507,0.2263504,0.157836911,-0.01138916023,-61.0316468,52.807770999999995,-109.5172115,8.332917347098968,0.27857743224610465,136.04243344606508,7.519609375000298,25.769609375000282
61600,61600.0,4.2328766600000005,-9.446301199999999,-3.95338437,0.43055725100000003,-0.34145356000000004,-0.13005828749999998,-60.9001162,53.282318,-109.91561920000001,11.08120910485096,0.569429007647375,136.48922070779477,7.467750000000298,25.75575000000028
61700,61700.0,1.16511999,-8.20872915,-2.30210041,0.5089691120000001,-0.2168716415,-0.05368423415000001,-61.6217044,52.65457190000001,-110.405427,8.609132504591951,0.5590635456206443,136.96387838230805,7.415890625000298,25.74189062500028
61800,61800.0,3.8466949999999995,-12.103867,-4.9621735000000005,0.17053223,-0.36968994,0.10206604,-60.3996276,53.9526368,-112.21054299999999,13.635388686092384,0.4197253503509862,138.38429570916534,7.3640312500002985,25.72803125000028
61900,61900.0,0.15364075,-8.366516,-0.4000244,0.74684143,0.33338928,0.502594,-60.07537825,54.63142325,-115.25802625,8.377482615852564,0.9599589899674692,140.98978377100477,7.312171875000298,25.714171875000282
62000,62000.0,0.8000641,-10.052032,1.0065613000000002,0.48052979999999995,-0.056503295999999995,0.18301392,-59.4659418,55.392608700000004,-117.9808042,10.13393386320389,0.5172964392499431,143.26210069790253,7.260312500000298,25.700312500000287
62100,62100.0,2.167456775,-10.03789775,0.27788391,0.5397491369999999,0.35356826399999997,-0.12878875550000002,-59.1285704,56.127624899999994,-119.74594099999999,10.274336922862702,0.6585146086071628,144.86405802263153,7.208453125000298,25.686453125000288
62200,62200.0,0.940185575,-9.0918867,0.4145332335,0.14465103199999998,0.330883029,0.0091186526,-59.91546700000001,54.9957262,-121.84951979999998,9.15032528645943,0.3619754986935293,146.49826355122752,7.1565937500002965,25.672593750000285
62300,62300.0,1.786535685,-9.39248075,-0.463772584,0.3559371925,0.170715332,0.2260643035,-59.0551749,55.1759341,-123.107758,9.572209375704118,0.455572960496222,147.26718453716325,7.104734375000295,25.65873437500029
62400,62400.0,2.695200385,-9.296605,0.423883821,0.25522002850000003,0.18446274,0.4301689165,-57.2512819,55.90973,-124.55017099999999,9.688807434042412,0.5331700628422539,148.04201956867868,7.052875000000296,25.64487500000029
62500,62500.0,2.4772065,-9.5263872,0.75350034,0.20600585800000001,0.417863465,0.20625,-55.8052052,55.99334720000001,-126.015318,9.874266589373057,0.5095245404842078,148.75940395536782,7.001015625000296,25.63101562500029
62600,62600.0,2.66909785,-11.5027985,0.7999481435,-0.024087525,0.1135101294,-0.074769591,-54.5045469,55.550689,-126.171416,11.840479019114227,0.14663649152615696,148.24270017962385,6.949156250000296,25.617156250000292
62700,62700.0,1.16470489,-10.8102703,-1.73455351,-1.26874546,-0.260394287,-0.600268555,-55.0239561,53.6882015,-121.88797,11.01385413857983,1.4276808226289914,144.10707860902747,6.897296875000294,25.60329687500029
62800,62800.0,-1.12511288,-10.6449588,-0.5538573960000001,-1.80084224,-0.31887513,-0.380390931,-56.07437170000001,49.7955321,-111.76773200000001,10.735914740863056,1.8688209921336985,134.59589988955787,6.845437500000294,25.58943750000029
62900,62900.0,1.79054565,-9.541105900000002,0.0540390015,-0.883648683,-0.13469696,-0.721818555,-56.1157228,45.9101869,-104.6762078,9.709441258170196,1.1501836108907448,127.3341135142667,6.793578125000295,25.57557812500029
63000,63000.0,0.938697792,-6.46288603,-1.8899337999999999,0.200994877,-0.8134750340000001,-0.433557136,-56.573792000000005,43.2601932,-102.19391,6.800854843533044,0.9446812762178995,124.56197022000146,6.741718750000294,25.561718750000292
63100,63100.0,1.7601486000000002,-8.9017288,-3.28910828,0.310612493,-0.407830807,0.140408324,-54.65473384210527,43.362345789473686,-101.45079105263157,9.654082146861576,0.5330818268467918,123.12477082418604,6.689859375000294,25.54785937500029
63200,63200.0,3.27530975,-9.56840505,-3.60550685,0.28451080100000004,-0.109127804,0.0027801511000000003,-53.28788775,43.6424255,-101.9748675,10.737474162458598,0.3060993104940518,123.05772128984701,6.638000000000295,25.53400000000029
63300,63300.0,2.35222782,-7.422119099999999,-3.23559414,0.261511234,-0.604475403,-0.30998383,-52.16217025,43.42041025,-101.724244,8.435407923478138,0.7311228291821276,122.28682977492642,6.5861406250002945,25.52014062500029
63400,63400.0,-0.38015288,-10.3808704,-0.98588868,0.949137879,0.25657653399999997,0.614341737,-50.91514574999999,44.7738645,-104.14581,10.461429454238104,1.163882948223176,124.27182345378891,6.534281250000293,25.506281250000296
63500,63500.0,0.8753550210526316,-7.859128473684209,2.0797408263157897,0.15678887315789472,1.5962267684210527,-0.2100621310526316,-49.88708475,45.86830175,-106.752775,8.264672313972516,1.6182549902791348,126.44695172475723,6.482421875000293,25.492421875000296
