Unnamed: 0,st,ax,ay,az,gx,gy,gz,mx,my,mz,AccTotal,GyrTotal,MagTotal,lat,lng
17000,17000.0,3.08581312,-9.3317373,1.34516832,-0.008168029569999999,0.094499206,-0.07093658550000001,-42.790222,39.63089,-135.731505,9.923019870521244,0.11960791919172535,147.7317174039987,33.19,32.63
17100,17100.0,2.222997275,-9.49262385,0.1866676325,0.053886412599999996,0.138869477,-0.13911590699999998,-42.884827,39.064026,-135.8757,9.751902571486042,0.20681428795268605,147.7409065704123,33.14390277777777,32.61768055555556
17200,17200.0,3.38125996,-9.073994699999998,1.2461052175,0.110292054,0.083631896,-0.0834510797,-43.327329999999996,39.21051,-136.26404,9.770323262501995,0.16780586357369365,148.2653372049941,33.097805555555546,32.60536111111111
17300,17300.0,2.72357178,-9.4905852,0.46811217,0.0791290284,0.120550534,0.135089108,-43.133545,38.926697,-136.74164,9.886477692600348,0.19812745473730506,148.57343825020146,33.05170833333333,32.59304166666667
17400,17400.0,3.275498945,-9.511544099999998,0.7094436654999999,0.11939697029999999,0.111492155,0.215293122,-42.6025385,39.3058775,-137.40463,10.085223467013098,0.2708274696308271,149.130768049011,33.005611111111115,32.580722222222235
17500,17500.0,2.20528412,-9.31676975,1.1508751149999998,0.0656539931,0.214981841,0.171723937,-41.7266845,39.350891499999996,-137.99057,9.643769495238645,0.2847231281996674,149.4356551044479,32.959513888888885,32.568402777777784
17600,17600.0,3.125853705,-9.34322355,1.71333923,0.049249268049999996,0.48523407,0.30851059,-40.6331625,39.7421263,-139.1412355,10.000195841032404,0.5771794527786339,150.30249117014188,32.91341666666666,32.55608333333334
17700,17700.0,2.881410195,-10.047662275,1.555313905,-0.00790557875,0.2034294185,0.22856292600000003,-39.39094535,40.11413665,-139.329758,10.567965476623817,0.3062573026860621,150.24517121199898,32.86731944444444,32.5437638888889
17800,17800.0,1.759363565,-10.108833099999998,0.60823442,-0.202421568,0.04726028415,0.007676696920000002,-39.1548165,40.572357000000004,-139.37149,10.279976495390851,0.2097190526289527,150.34503356109357,32.82122222222222,32.53144444444445
17900,17900.0,2.61026683,-9.73473795,0.10227661145,-0.6890357949999999,-0.38625793049999996,-0.11876449349999997,-39.54162700000001,41.372681,-137.86316000000002,10.079949135605453,0.8002350204256272,149.26988343347853,32.775125,32.51912500000001
18000,18000.0,0.95845837,-11.138426842105265,-0.4081605652631579,-1.4267497736842103,-0.4518231757894737,-0.6564676489473684,-41.916657,42.36374,-133.7471,11.190067157171404,1.6358116267828826,146.42420524931282,32.729027777777766,32.50680555555557
18100,18100.0,0.93713377,-10.667343,-0.23004150199999998,-1.24840545,-0.39418793,-0.614860535,-44.422912,42.023468,-128.48053000000002,10.720534367516365,1.4498713341341982,142.29155686913236,32.68293055555555,32.49448611111112
18200,18200.0,2.44069675,-8.470062500000001,-0.007980346999999999,-0.3056488,-0.4474563700000001,-0.8843689,-47.3754885,40.98587,-125.178528,8.815473120257636,1.0471306048861395,139.9783945334437,32.63683333333333,32.48216666666668
18300,18300.0,0.9269638000000001,-6.96590415,-1.94788365,0.27332306500000003,-1.0567856000000002,-0.18875122,-49.362945,39.7605895,-123.814392,7.301111441017865,1.1102541830184582,139.09591499781072,32.590736111111106,32.469847222222235
18400,18400.0,3.92749015,-8.107338,-3.0617828,0.412345885,-0.313766475,0.17503357,-49.1691585,39.949036,-123.98376499999999,9.521220191863527,0.5479641357695746,139.23208972786898,32.544638888888876,32.45752777777779
18500,18500.0,5.19641885,-9.633644,-4.07632445,0.35322571,-0.59552765,-0.253204345,-49.2240905,40.3312685,-124.628447,11.699039835543747,0.7536360449522486,139.9358246392485,32.49854166666666,32.44520833333335
18600,18600.0,-0.2174682499999998,-10.557205499999998,-2.1346283,0.711151125,0.27852631,0.806732175,-49.1394035,40.85846,-126.31836000000001,10.930146223500461,1.130694205136478,141.56459793145137,32.45244444444444,32.432888888888904
18700,18700.0,0.3086547500000001,-6.46970365,3.0554047000000004,0.1934356675,0.8127594,-0.08808136,-47.783660999999995,41.4237975,-127.48871000000001,7.367440906297944,0.8593153884805307,142.31156583485853,32.406347222222216,32.42056944444446
18800,18800.0,3.6491699,-10.763702499999999,-0.16240691500000004,0.271728515,0.579994205,0.453598025,-46.586609,42.33017,-130.65567,11.378550960661546,0.7916998700725086,145.02827925834262,32.36024999999999,32.40825000000002
18900,18900.0,3.1679306,-10.034073,0.7874985,0.43258667,-0.17314911,0.202728275,-45.86258,42.285157,-132.19146999999998,10.561955890002297,0.5099270930847537,146.17138517616485,32.314152777777764,32.39593055555557
19000,19000.0,2.1940918,-9.5749895,-0.2234573199999999,0.45495605,0.09849548300000001,-0.148269655,-45.96633900000001,41.9143675,-133.77380499999998,9.848329716040167,0.4953875479052695,147.5302130963179,32.26805555555555,32.38361111111113
19100,19100.0,2.5328751,-9.53727725,0.8240051500000001,0.20780945,0.2684021,0.006187438999999996,-46.114806099999996,41.5287016,-135.2204125,9.90972429028624,0.342380271986219,148.78111602745972,32.22195833333333,32.37129166666669
19200,19200.0,1.837178775,-9.41546775,0.240839383,0.26172104150000003,0.306272886,0.22935867350000003,-45.7661443,41.67839035,-136.438136,9.596398120007553,0.466298216153536,149.82355922984758,32.175861111111104,32.358972222222235
19300,19300.0,4.11250373,-9.21567545,0.812637315,0.190661625,0.269633489,0.328052519,-44.07188435,41.92588789999999,-137.986145,10.12591193779103,0.4675727149073663,150.79892354657943,32.12976388888888,32.3466527777778
19400,19400.0,2.31865539,-9.30414225,1.04463351,0.08440246900000001,0.28102645800000003,0.14999389999999999,-42.9599763,42.2912593,-138.5387395,9.646135676637918,0.32998107481518296,151.08658567628257,32.08366666666666,32.334333333333355
19500,19500.0,2.822213005,-9.762925599999999,1.506533015,-0.057482911,0.36012649500000005,0.20848083350000002,-42.0030216,42.62779285,-139.92294099999998,10.277576203350456,0.4210633134536225,152.18353121989298,32.03756944444444,32.32201388888891
19600,19600.0,0.41375961549999996,-11.13767595,-0.34735793879999993,-0.121087645625,-0.152268982,-0.2025543175,-42.220611700000006,43.1535333,-139.791866,11.157339721674523,0.3080457815170989,152.27162333771562,31.99147222222221,32.30969444444447
19700,19700.0,2.30374603,-9.76293265,-0.1831756575,-1.23567351,-0.2119232141,-0.291975405,-42.9381556,43.6738589,-137.4458295,10.035089733669556,1.293673584730697,150.47447907020984,31.94537499999999,32.297375000000024
19800,19800.0,0.6593444775,-10.95750935,-0.336103054,-1.520362865,-0.08110656949999998,-0.68293075,-45.4510499,44.01100135,-131.01478500000002,10.982915289124934,1.674164189450699,145.49145650998733,31.899277777777765,32.28505555555558
19900,19900.0,2.99842226,-9.4163638,-0.40146484200000004,-0.59794924,-0.23845214600000006,-0.6990173359999999,-47.6706698,43.09043925,-127.4340855,9.89905600886164,0.9637716616210018,142.71936808650062,31.85318055555555,32.272736111111136
20000,20000.0,1.36413878,-7.6674072199999985,-1.35555726,-0.02398681620000001,-0.850341804,-0.665356456,-50.6576544,41.343688,-124.70458799999999,7.914003976634348,1.0811010158043926,140.80763650321032,31.807083333333324,32.26041666666669
20100,20100.0,2.6194214,-7.343466,-2.4801116800000003,0.08466796800000001,-0.32729188,0.077990724,-51.3085932,40.6030278,-123.359986,8.186050292725954,0.3499399083736754,139.63842229222095,31.7609861111111,32.24809722222225
20200,20200.0,3.74972536,-8.2192656,-3.03604738,0.563827512,0.119906618,0.30509948600000003,-50.869750200000006,41.173094799999994,-124.40734760000001,9.53986900914645,0.6538136018107388,140.570911123565,31.71488888888888,32.235777777777805
20300,20300.0,4.9133118,-9.8557038,-3.99994508,0.32798156,-0.382476804,-0.19919739,-49.9862672,41.593933,-126.548158,11.73799125703301,0.546999900469727,142.27834525366978,31.668791666666657,32.22345833333336
20400,20400.0,4.79527292,-12.2343384,-4.28653258,0.1281311032,-0.46087036,0.34558409799999995,-49.31305,42.1823124,-127.762146,13.894880789180196,0.6042618258828767,143.29798920505982,31.62269444444443,32.211138888888925
20500,20500.0,0.5188041825000002,-8.18808046,0.50413970665,0.5671302739999999,0.294557953,0.477674102,-48.3486938,42.4688724,-129.55261000000002,8.288728376303691,0.803933640355013,144.65536821245547,31.576597222222208,32.198819444444474
20600,20600.0,1.80593037,-9.814817800000002,1.274474315,0.5496009949999999,-0.1613265955,0.0471435545,-46.9976806,42.85034200000001,-132.02606,10.073320467500002,0.597667114909592,146.5463048856412,31.53049999999999,32.18650000000003
20700,20700.0,3.03738557,-9.40625085,1.08743286,0.59419022,-0.002861785450000015,0.03425369199999999,-46.440734,42.6657112,-133.825072,9.971349603182322,0.6008301969828476,147.94016398814608,31.484402777777767,32.174180555555594
20800,20800.0,1.55741424,-9.03030175,1.4499748,0.199771117,0.266802974,0.1836013775,-46.330259999999996,42.141723999999996,-135.474244,9.28026055708943,0.3908192774180349,149.25064754043973,31.438305555555548,32.16186111111114
20900,20900.0,1.70028609,-9.293302699999998,1.032426435,0.5545577939999999,0.338394925,0.2853416415,-45.1153562,42.6364138,-137.69165,9.506753117461699,0.7096783141749483,151.0373674071051,31.392208333333322,32.1495416666667
21000,21000.0,3.579680675,-9.16922935,1.242092905,0.2612335175,0.182653045,0.37519226899999997,-43.67431679999999,42.5186152,-138.62549199999998,9.92346538910468,0.4925032487754025,151.43429470760427,31.346111111111103,32.13722222222225
21100,21100.0,2.466671005,-9.1749171,1.3430153,0.09495162925,0.4253173815,0.24651108,-42.027282799999995,43.0453492,-140.218508,9.595372659172039,0.501419683738138,152.5794169809811,31.30001388888888,32.12490277777781
21200,21200.0,3.97752982,-9.658059699999999,2.3911314999999997,-0.17482757699999998,0.459518425,0.280172731,-40.080567200000004,43.7377936,-140.771178,10.724020687014141,0.5666686282927793,152.76124065537638,31.25391666666665,32.112583333333376
21300,21300.0,0.6396591049999999,-11.901306300000002,-0.7929137917000001,-0.280604544,-0.487609864,-0.322230524,-40.6280512,44.080810799999995,-140.507206,11.962916901497634,0.6585708017950627,152.76242152588082,31.20781944444443,32.100263888888925
21400,21400.0,1.40963137,-9.1144562,-0.8215285959999999,-1.42172242,-0.16185302399999998,-0.4699844360000001,-41.9009408,45.13153,-136.473392,9.265979024919016,1.5076508349350162,149.72560726508095,31.16172222222221,32.08794444444448
21500,21500.0,1.0427261079999999,-11.329688800000001,-0.015039071999999987,-1.59876555,0.026376344999999995,-0.684312438,-44.1308592,45.7965088,-129.53155800000002,11.39068389146114,1.7470591435196912,144.30319068512418,31.11562499999999,32.07562500000004
21600,21600.0,2.87859952,-8.9617051,-0.817097478,-0.432832342,0.0253143314,-0.608578489,-46.544799600000005,45.0930784,-125.64788759999999,9.448397386140512,0.7535442539035784,141.3761836020258,31.06952777777777,32.063305555555594
21700,21700.0,0.919302382,-8.1840773,-1.21034848,0.26342316,-0.63302307,-0.5417816,-49.1290284,43.740235,-124.709167,8.330981116726164,0.8749615657106562,140.99384527106918,31.02343055555555,32.05098611111115
21800,21800.0,3.1692489,-8.206822500000001,-2.7212052000000004,-0.0830001838,-0.305453487,-0.429724118,-50.95238989473685,43.05524357894736,-122.84216421052632,9.21015992043338,0.539140643414154,139.78594382039307,30.97733333333332,32.038666666666714
21900,21900.0,1.97945863,-7.733960000000001,-1.96379854,0.41490479999999996,-0.214160159,0.297854616,-51.25434905,43.20091220000001,-123.07807849999999,8.227232381829847,0.5546356511672839,140.14852014931185,30.931236111111094,32.02634722222226
22000,22000.0,4.9202514200000005,-9.897244500000001,-3.83104248,0.429490658,0.176043703,0.16895447000000002,-50.0959006,44.28237955,-124.939193,11.698223557116645,0.4944712574817191,141.70520970603368,30.885138888888875,32.01402777777782
22100,22100.0,0.490257258,-9.7552656,-0.8888076909999999,0.6492584269999999,0.276499941,0.439752197,-49.72473195,44.5703124,-126.3930519,9.817518324925565,0.8414968437681254,142.94909165031362,30.839041666666652,32.001708333333376
22200,22200.0,2.19409487,-8.4959137,0.06301572999999983,0.30561066,0.6024750000000001,-0.115679931,-49.13688695,45.36376960000001,-127.760848,8.901958240051695,0.6863778313217925,144.2052791047362,30.792944444444426,31.989388888888932
22300,22300.0,3.07659,-9.64848665,0.0010055539999999988,0.510668946,0.401239014,0.459562674,-48.0167395,45.89408805,-129.241634,10.127943693496986,0.8013649609271862,145.31104752505775,30.746847222222208,31.97706944444449
22400,22400.0,2.27621311,-10.3430403,0.987052912,0.427153015,-0.238444525,0.21103668399999997,-47.2171783,46.2828838,-131.6278085,10.654889648550329,0.535564612840983,147.3005358108931,30.700749999999985,31.96475000000005
22500,22500.0,2.04744112,-9.4398349,0.6784393209999999,0.480949399,0.224620057,-0.144335935,-46.93344195,45.792846999999995,-133.7536635,9.693305403235671,0.5502447802901337,148.96243751082002,30.654652777777766,31.9524305555556
22600,22600.0,2.04097908,-9.245776699999999,0.934382635,0.15944824,0.399113469,0.08799743715,-46.943894,45.47782875,-135.13351550000002,9.515894272789422,0.4421010910257109,150.1100706706218,30.60855555555554,31.94011111111116
22700,22700.0,2.822864525,-9.269428,0.6668930075,0.1444320725,0.428726195,0.1766242975,-45.912017,45.825348,-135.9696955,9.713841081030832,0.4858446650374655,150.65072916957263,30.56245833333332,31.927791666666714
22800,22800.0,2.84112165,-9.14612575,1.1442298750000002,0.1585502575,0.30994797,0.216308595,-45.0036611,45.855713,-137.6414475,9.645486382537776,0.4099303410795893,151.89880188130414,30.516361111111088,31.91547222222227
22900,22900.0,2.0220032,-9.38674175,0.77163315,0.041637420000000015,0.3775939925,0.2232360825,-44.06433,45.947266,-138.15001999999998,9.633828295884461,0.4413656292325207,152.11260453106462,30.470263888888873,31.90315277777783
23000,23000.0,2.989864325,-9.45138575,1.262439725,0.01047134395,0.5746689,0.3012695325,-42.420807,46.517105,-139.703446,9.993705041249532,0.6493368500623762,153.23328844344618,30.42416666666665,31.890833333333386
23100,23100.0,3.3780212,-11.10547625,1.425254825,-0.04251861575,-0.10230636624999996,0.10525894,-41.1827849,47.23098825,-140.02777300000002,11.697420207646168,0.19416095022917226,153.40990635412481,30.378069444444428,31.87851388888894
23200,23200.0,0.52323532,-10.283661,-2.392601,-1.33042525,-0.47914505,-0.426307675,-42.85507185,47.2942344,-137.123873,10.571866652629867,1.4809233964375792,151.2495392810446,30.331972222222205,31.866194444444496
23300,23300.0,1.071212735,-10.8382225,0.32361984250000003,-1.78929135,-0.1158905,-0.5424232525,-45.02090475,47.55866985,-129.5689365,10.899973305825696,1.873455255214855,145.1797771616706,30.285874999999987,31.853875000000052
23400,23400.0,1.90379024,-9.203284,-0.854202272,-0.60967408,-0.054586793200000004,-0.6063354719999999,-47.690811,46.11450215,-125.07019050000001,9.437955325426515,0.8642881991940885,141.57597672116557,30.239777777777764,31.841555555555612
23500,23500.0,1.61744998,-7.62262876,-1.2334503,0.21271362,-0.548870848,-0.438876344,-49.723093,44.6758072631579,-123.53828747368422,7.893715908638576,0.7353179483695019,140.4636661354785,30.193680555555535,31.829236111111165
23600,23600.0,2.44919432,-9.0991398,-3.47107236,-0.002465819599999988,-0.7214385999999999,-0.203030396,-50.7279969,43.853761,-122.5263988,10.045005667819435,0.750549667544878,139.67538909041266,30.14758333333332,31.816916666666717
23700,23700.0,2.8954712000000002,-8.5587674,-1.8054291,0.09682007,-0.015170290000000003,-0.08201599000000001,-51.25396720000001,43.2992558,-122.8327955,9.214568741745586,0.14709145647187705,139.96319162389776,30.101486111111086,31.80459722222228
23800,23800.0,3.99153748,-8.3286868,-2.72934262,0.110455322,-0.299386592,-0.193862918,-51.5161134,43.3370982,-122.44278100000001,9.636157922785491,0.374076287597605,139.7292516271857,30.05538888888887,31.792277777777834
23900,23900.0,3.02045286,-7.53117068,-2.07404784,0.36441650600000003,-0.17409973,0.08608093300000001,-51.561432,42.6748658,-122.49054,8.37875359976956,0.4146750376266885,139.5839626156399,30.009291666666652,31.779958333333393
24000,24000.0,1.917256955,-11.40978385,-3.18370587,0.998241445,0.417699435,0.5161788709999999,-50.2748109,43.5418706,-125.37201,12.001088429000484,1.1998251054069995,141.9213973298742,29.963194444444426,31.767638888888946
24100,24100.0,0.8475296,-7.2504525,1.6282219249999998,-0.08843765491000001,0.7749908495000001,0.0908294675,-49.204101200000004,43.668060700000005,-127.65670800000001,7.590152830428256,0.7870879351673118,143.61121268695643,29.917097222222203,31.755319444444503
24200,24200.0,2.75821911,-10.75436725,-0.2616996705,0.3965850855,0.494672391,0.36470337,-47.773590500000005,44.142608700000004,-129.68750500000002,11.112672056865847,0.7360667748591182,145.08550078761985,29.87099999999998,31.74300000000006
24300,24300.0,2.889125855,-10.19645525,0.9336601290000001,0.6045784009999999,-0.326754757,0.19799041399999998,-46.8708804,43.9428714,-130.875089,10.644893767452867,0.7243856803022474,145.79504146801824,29.824902777777762,31.73068055555561
24400,24400.0,1.6016426000000001,-8.899285899999999,0.24047851899999995,0.2306098915,0.35900117,-0.246340182,-47.386322,43.44284070000001,-132.76138400000002,9.054820644460737,0.502254566305589,147.507229308559,29.778805555555536,31.718361111111175
24500,24500.0,2.88032606,-9.56888,1.018415066,0.221934512,0.276335143,0.17449951,-46.9137576,43.171234600000005,-134.06173800000002,10.046901869199662,0.3955110932570709,148.44936583540294,29.732708333333317,31.70604166666673
24600,24600.0,2.33067627,-9.392422199999999,0.30972900360000005,0.198757938,0.34360962,0.212954708,-45.9083557,43.1633002,-135.702208,9.683923591683273,0.45117455071491497,149.61883435788627,29.686611111111088,31.693722222222284
24700,24700.0,2.58853915,-9.3425031,1.06965635,0.139428705,0.262338259,0.2524765,-44.7029112,43.2821652,-136.58661,9.753839582843963,0.3903620427210126,150.0922776036053,29.64051388888887,31.681402777777837
24800,24800.0,2.7017852500000004,-9.194911300000001,1.17679294,0.08275299059999999,0.47166290299999997,0.28656464,-43.408204,43.3827211,-137.313842,9.655743156694967,0.5580789842803837,150.4043568531763,29.59441666666665,31.669083333333397
24900,24900.0,2.65293429,-10.1673174,1.78013458,0.054954529,0.291197201,0.30733490199999997,-41.79626470000001,44.0771492,-138.111874,10.657994115508464,0.427357483319851,150.87954706884986,29.548319444444427,31.656763888888957
25000,25000.0,1.93169402,-10.8837816,-0.6779891800000001,-0.29307861,-0.0798233035,-0.09096984673,-41.2316902,44.06570429999999,-138.43185699999998,11.077825541122714,0.31920088537554125,151.01415055372013,29.502222222222198,31.644444444444513
25100,25100.0,2.28112639,-9.239311,-0.15534514900000002,-1.27790679,-0.527246098,-0.46763611299999996,-42.5616468,44.512788,-134.893191,9.519046510993457,1.459609959790344,148.28777289002414,29.456124999999982,31.632125000000066
25200,25200.0,0.5726767926315789,-10.741300263157894,-0.28598985815789474,-1.1884035210526316,-0.4821560494736842,-0.756200697368421,-45.2886962,44.058989800000006,-129.170375,10.760733447870868,1.4894989569727817,143.7963477282623,29.410027777777763,31.619805555555626
25300,25300.0,2.6987267000000004,-9.71438515,-1.043772118,-0.54884186,0.161658473,-0.6043625149999999,-47.4279792,42.6635749,-125.612945,10.141615350250673,0.8331371723668844,140.88408970873547,29.36393055555553,31.60748611111118
25400,25400.0,1.227674095,-8.4459433,-0.9932556175,0.0779647851,-0.821793375,-0.59392546,-50.0595095,41.16363575,-124.5033275,8.593983499714383,1.0176561230119077,140.36220471417903,29.317833333333308,31.59516666666673
25500,25500.0,2.98495092,-8.9319561,-3.300656845,-0.12465209800000003,-0.5372535764999999,-0.19909439199999998,-51.070512285714294,40.23982471428572,-122.99870285714287,9.980058082381788,0.5865315066050882,139.12634281917133,29.27173611111109,31.58284722222229
25600,25600.0,2.66599575,-7.218136645,-1.908975995,-0.0967445355,-0.359991461,-0.1518920865,-51.66702275,39.57481325,-121.50840649999999,7.928179482106692,0.4033271434323877,137.840423460039,29.22563888888887,31.57052777777785
25700,25700.0,4.0567268200000015,-8.118825274999999,-3.301383215,0.544548798,-0.1002845785,0.1721000705,-51.52206375,39.7865295,-121.47713,9.657947214920574,0.5802580465021056,137.8195615253338,29.179541666666648,31.558208333333408
25800,25800.0,2.181875565,-8.9601603,-2.329209925,0.46699982149999997,0.011248016800000009,0.21903076,-51.021575,40.47660825,-122.90344250000001,9.519012025876274,0.5188042768137251,139.09289322013734,29.13344444444442,31.54588888888896
25900,25900.0,5.2855988,-12.449829,-5.1345673,-0.00843811,0.005279541,0.23735046,-49.3278495,41.184615,-124.6452325,14.46718971196658,0.2375590792113709,140.23499868398372,29.0873472222222,31.533569444444517
26000,26000.0,0.6013489000000001,-7.7236633,0.41281128,0.75109863,0.49317932,0.31192017,-48.9997855,41.357803499999996,-126.9321425,7.758028642908799,0.9511409917127788,142.20843638976692,29.041249999999977,31.521250000000077
26100,26100.0,1.954071,-9.691696,1.0424805,0.49011229999999995,-0.32814026,0.26290894,-47.82180775000001,41.64734,-129.7653175,9.941535616912374,0.645760952346982,144.43175155510824,28.995152777777754,31.50893055555563
26200,26200.0,2.5621948,-8.128281,0.052474976,0.5870514,0.119262695,-0.27824402,-47.63259875,41.15486175,-131.23435999999998,8.52270777577257,0.6605094029053511,145.55092267351182,28.94905555555553,31.496611111111182
26300,26300.0,1.0837860000000001,-8.803452,1.1298676,0.086380005,0.37599182,0.06265259,-48.22464075,40.645599,-132.9589825,8.94158598927672,0.3908410175562699,147.15907707367668,28.902958333333306,31.484291666666746
26400,26400.0,1.92331462,-9.58989225,0.4955291755,0.26571121400000003,0.2560470535,0.2885383595,-47.1813205,41.02173,-133.716965,9.793512227560175,0.4684330854961757,147.61132338767203,28.856861111111087,31.4719722222223
26500,26500.0,2.6912429400000004,-9.3890205,1.147580685,0.19551696600000001,0.34350967200000004,0.2574775715,-46.14295825000001,41.4482115,-135.193635,9.834315609714633,0.4717573848729215,148.74320420339325,28.810763888888864,31.459652777777855
26600,26600.0,2.482776625,-9.142826075,0.971009825,0.1272316005,0.25028992,0.2148208625,-45.098877,41.493607,-136.1827875,9.523765466266779,0.3535767981384219,149.33659436508714,28.764666666666642,31.44733333333341
26700,26700.0,2.4233398,-9.76712,0.8198242,0.15028381,0.44844055,0.35879517,-44.00863625,41.775513000000004,-137.2589075,10.096599457221707,0.5936481486939443,150.0733401282029,28.718569444444423,31.43501388888897
26800,26800.0,3.641809271428572,-10.189126476190477,1.6271740285714285,0.0023171560476190484,0.3184196795238096,0.16760254190476193,-42.4030305,42.26532,-137.67738500000002,10.942089421865273,0.3599046857808641,150.13182260395368,28.6724722222222,31.422694444444524
26900,26900.0,2.40358045,-11.28976895,-0.3552619905,-0.228305813,-0.464341733,-0.16106490699999998,-42.79098475,42.00592175,-137.54044,11.549678827101822,0.5424786935790988,150.04321865451152,28.626374999999967,31.410375000000077
27000,27000.0,1.7666046350000002,-10.16180425,-1.591915905,-1.625559215,-0.8951797484999999,-0.646608733,-44.8883055,42.02232325,-132.971575,10.43635084472011,1.9653947742270244,146.50099494395732,28.58027777777775,31.39805555555564
27100,27100.0,0.29938201499999995,-11.550138075,-0.5036361659499999,-1.771765905,-0.10203781100000003,-0.4875129735,-47.35603325,41.5302275,-125.2307895,11.57194578628726,1.8412582924702516,140.1792131052398,28.53418055555553,31.385736111111196
27200,27200.0,2.49395901,-7.883601199999998,0.3531829875,-0.38149567700000003,0.087307741,-0.691128533,-49.261094,40.17982525,-122.63069250000001,8.277884088281791,0.7985644927136742,138.1282563294337,28.488083333333307,31.373416666666753
27300,27300.0,0.5523925900000001,-7.8099837,-1.98067783,0.38486328299999994,-0.76735229,-0.269932558,-50.76332125,39.16702325,-121.8048125,8.078603142317705,0.9013013950701558,137.64956147712266,28.44198611111109,31.361097222222305
27400,27400.0,2.55177921,-8.411402699999998,-3.39457705,0.039083862000000004,-0.04713134739999997,-0.1190902706,-51.05323775,39.04952975,-121.3546725,9.42312113674823,0.15032868240904915,137.32540427294032,28.395888888888866,31.348777777777862
27500,27500.0,3.93646695,-8.1157164,-2.45568392,0.1271820048,-0.243029797,0.07532043499999999,-51.17683375,39.0987395,-121.59118649999999,9.348581707392334,0.2852989011855114,137.59440593366298,28.34979166666664,31.336458333333415
27600,27600.0,3.47822567,-8.409840299999999,-3.80769039,0.50800171,-0.27093354,-0.10279083259999999,-51.10283,39.02664125,-121.5530425,9.866923147476797,0.5852843042027106,137.51271635627785,28.303694444444414,31.32413888888897
27700,27700.0,1.77726287,-10.3089266,-1.94859624,0.77410583,0.0536468506,0.467333987,-50.7053375,39.69726575,-123.81286875,10.64201555778623,0.9061544080836011,139.55840727567073,28.257597222222195,31.31181944444453
27800,27800.0,0.4081390429999998,-7.88181005,1.6421051300000002,0.09766388,0.623249819,-0.023751831400000003,-50.00495925,40.0753025,-124.799345,8.140318458496111,0.6314081414010562,140.29045375021585,28.211499999999965,31.29950000000009
27900,27900.0,2.68022919,-10.46143,-0.11835327469,0.470616152,0.68588103,0.392031863,-48.657608,40.3415675,-127.9151925,10.807744110817868,0.922327760804307,142.67923099101182,28.165402777777746,31.287180555555643
28000,28000.0,2.85908054,-9.8776106,0.4676300050000001,0.372828678,0.30866546300000003,0.06583862339999999,-48.351289,40.18325775,-129.9552925,10.296350217008222,0.4953467383342032,144.36399349876154,28.11930555555553,31.274861111111196
28100,28100.0,2.0853705052631577,-9.154708368421053,0.6756664042105263,0.3459681452631579,0.2767518705263158,-0.07045464747368421,-48.16512925,39.741516499999996,-131.983565,9.414589368664672,0.44875324652206383,146.01023169759318,28.073208333333305,31.26254166666676
28200,28200.0,2.2776542550000003,-9.72151,0.2179153435,0.24558105600000002,0.4328330975,0.127145384,-47.736357500000004,39.676666,-133.9489025,9.987689169475992,0.5137499755023612,147.63258153435856,28.027111111111086,31.25022222222231
28300,28300.0,2.960781045,-9.3342534,0.9963363675,0.136872857,0.4047103915,0.11467819550000001,-46.8647005,39.5820625,-135.3290575,9.843165981844717,0.44239252177664096,148.5833603184893,27.98101388888886,31.237902777777872
28400,28400.0,2.506529215,-9.3213179,0.8294570929999999,0.1512016325,0.35308990799999995,0.11164856,-46.18506157894736,39.568289,-136.68967578947368,9.68839027617586,0.4000955574116397,149.6087949248877,27.93491666666664,31.225583333333425
28500,28500.0,2.5164649800000003,-9.844927975,0.7473403885000001,-0.005292510850000001,0.37316743,0.189839173,-45.1748648,39.624939000000005,-137.716674,10.189158469135583,0.4190058727801844,150.25589928186588,27.888819444444408,31.213263888888978
28600,28600.0,2.69663311,-9.30485265,1.356479625,-0.015991211499999998,0.349418636,0.2674919145,-44.2004388,39.88495,-137.68829,9.782399354513807,0.4403910912618776,150.0085152559447,27.842722222222196,31.200944444444538
28700,28700.0,2.812808255,-9.59384215,0.8328674275,-0.197892762,0.2680381795,0.30978394,-42.586670399999996,40.8230592,-138.014226,10.032899674762431,0.4552409221658984,150.09384473849784,27.796624999999967,31.18862500000009
28800,28800.0,3.645516945,-10.806623599999998,-0.709531418,-0.5328567635,-0.592063904,-0.129573818865,-42.520753000000006,41.195068400000004,-136.42883600000002,11.429120968585256,0.8074950297096826,148.7210195523543,27.750527777777748,31.17630555555565
28900,28900.0,0.2367095925,-10.03430585,-0.6729606350000001,-1.86711353,-0.638134765,-0.48122024399999996,-44.760133,41.71661339999999,-131.269834,10.060770436995012,2.0310782463639945,144.8298980672164,27.704430555555525,31.16398611111121
29000,29000.0,1.70010219,-11.036341499999999,-0.8451095362000001,-1.1530639299999998,-0.351311494,-0.681174465,-46.5573124,40.849914399999996,-125.549925,11.200301735422943,1.3847366779632688,139.99742121060416,27.658333333333307,31.151666666666767
29100,29100.0,2.0977325,-8.043289,-0.31144714,0.05015564,-0.3824768,-0.8353729,-49.2153932,40.05867005,-124.12056000000001,8.318171607997241,0.9201369315577218,139.40162842935533,27.612236111111077,31.13934722222232
29200,29200.0,0.2601776,-8.295883,-2.1717377,0.39317322,-0.7862091,-0.40499878,-51.2467941,38.622131599999996,-124.137955,8.579382948139804,0.9678501648754659,139.74310728859598,27.566138888888855,31.127027777777876
29300,29300.0,2.8219757000000003,-8.262360000000001,-2.2627106,-0.07980347,-0.05224609400000001,-0.010864258,-51.37092565,38.5122685,-123.724975,9.019423422832684,0.09600145969821657,139.39168537215974,27.520041666666643,31.11470833333343
29400,29400.0,4.9923096,-8.483825999999999,-2.9857635,0.40382385,-0.15130615,0.042404175,-51.2606046,38.408203,-124.0459445,10.286556392615578,0.4333190128693589,139.60749500476237,27.47394444444441,31.10238888888899
29500,29500.0,2.8016205000000003,-8.338974,-3.3508758999999997,0.4890442,-0.18327332,0.0008544922000000001,-51.0862732,38.4792331,-125.2159145,9.413603672127753,0.5222586232264453,140.60400102913312,27.42784722222219,31.09006944444455
29600,29600.0,4.8247222999999995,-14.249069,-5.138153,0.41021729999999995,-0.4059143,0.5537262,-49.86846935,39.51156575,-127.91694625,15.896997480351038,0.7997858192855258,142.86633179649397,27.38174999999997,31.0777500000001
29700,29700.0,-0.6051467836000001,-7.24076388,3.753196705,0.307101445,0.52283704,0.13230896350000002,-49.3341831,39.9598698,-129.55375700000002,8.201723366615191,0.6266516291817852,144.27350913998643,27.33565277777775,31.065430555555658
29800,29800.0,2.186963655,-9.8426491,1.733683745,0.293939206,0.5816490405000001,0.288586425,-47.73719805,40.45105,-132.44331699999998,10.232616236356902,0.7201167464534416,146.47993454474454,27.289555555555523,31.05311111111121
29900,29900.0,3.821132635,-9.955954375,1.008003222,0.604686747,0.2430488565,0.0714820845,-46.495818,40.77873305,-134.49005449999999,10.72130577529754,0.6577102591826333,148.02838859738588,27.2434583333333,31.04079166666677
30000,30000.0,1.23186113,-8.9564411,1.3433121125,0.1256279025,0.51341094,-0.0362617494,-46.49116545,40.149078,-136.6850285,9.142011848196427,0.5309517724820487,149.85394499923407,27.19736111111108,31.028472222222327
30100,30100.0,1.939412665,-9.38578745,0.457881175,0.274293517,0.33945083499999995,0.194902044,-45.88272205000001,40.16632145,-138.05046099999998,9.595023371324796,0.4781140425064066,150.9188201187796,27.151263888888856,31.016152777777886
30200,30200.0,2.515756325,-9.12134745,0.6117019610000001,0.2603294415,0.3093658425,0.2730415355,-44.15382375,40.2856444,-139.541325,9.481823321237028,0.48789304364678,151.80375478902036,27.105166666666637,31.00383333333344
30300,30300.0,2.834841935,-9.393563499999999,0.8144981250000001,0.1166275032,0.28118362,0.2787307755,-42.73956315,40.685730299999996,-141.0039525,9.845790273632293,0.41303323713422696,152.85339390847113,27.059069444444408,30.991513888889
30400,30400.0,2.83657532,-9.4582655,1.32571713,0.12781372140000002,0.35735779100000004,0.258010864,-41.60400355,40.9813689,-141.96220150000005,9.96341005322232,0.4601275535795688,153.50466692021817,27.01297222222219,30.979194444444552
30500,30500.0,2.6023009900000003,-11.1461806,1.3779006740000002,0.09223938,-0.235252381,0.228192139,-40.4816439,41.3225557,-143.343503,11.529884317501295,0.3432117793236993,154.5758549177499,26.966874999999966,30.96687500000011
30600,30600.0,1.55531313,-10.286186599999999,-1.47322846,-0.99551238,-0.187527465,-0.177037047,-41.00791895,42.60162365,-141.8815645,10.509938337868068,1.0285369087504164,153.71058468844606,26.920777777777747,30.954555555555665
30700,30700.0,0.664442438,-10.900658,0.239225773,-1.78710022,-0.689054865,-0.78892975,-43.6322021,44.551239100000004,-135.81887,10.924138366898863,2.071708099061192,149.45102781054055,26.87468055555552,30.942236111111217
30800,30800.0,1.1211288499999998,-10.5166196,0.21875915699999998,-1.151245124,0.003472900500000001,-0.6895431670000001,-46.95434505,44.83802785,-130.82076800000002,10.588447818146756,1.343404326128102,146.0456087880641,26.828583333333302,30.929916666666774
30900,30900.0,1.5918274300000002,-7.651481439999999,-0.6653030449999999,0.11695404050000001,-0.5041229269999999,-0.6363861249999999,-49.99461968421053,44.04995736842106,-129.28201789473684,7.844791333142385,0.8219910762660968,145.4431884610007,26.78248611111108,30.917597222222327
31000,31000.0,1.80503538,-8.9018569,-2.79459532,0.18374176600000003,-0.8191177409999999,-0.20845794199999998,-51.773529100000005,43.156585,-128.363957,9.508583487542774,0.8649832111333126,144.98389493078923,26.73638888888885,30.90527777777789
31100,31100.0,1.831965615,-7.435282125,-1.969359615,0.0927635205,0.161612705395,-0.1300048818,-52.876432799999996,42.888182799999996,-128.37356899999997,7.907874969697972,0.24239202123063786,145.31043706578475,26.690291666666628,30.89295833333345
31200,31200.0,4.389933695,-9.4562313,-3.269483975,0.5348449710000001,-0.33331222149999995,0.1412078865,-52.3240645,43.304443,-128.87802299999998,10.926947304914524,0.6476083137464707,145.6799285036516,26.64419444444441,30.880638888889003
31300,31300.0,0.09126205150000001,-9.5393146,-1.306529985,0.5567459349999999,0.36273955049999995,0.3439903305,-52.13394330000001,43.5673521,-130.946199,9.634799836205488,0.7537093585099119,147.52282235574262,26.59809722222219,30.868319444444555
31400,31400.0,4.190137600000001,-10.1652147,-1.61299212,0.2316246075,0.9351539575,0.1893089255,-50.132446,44.551390600000005,-133.54934599999999,11.1615822987887,0.9835186364911496,149.44421041204245,26.551999999999968,30.856000000000115
31500,31500.0,2.438296515,-9.60144595,0.2512527505,0.476583865,0.3994857815,0.354422764,-49.143524299999996,44.98077429999999,-137.544102,9.912338318314255,0.7177512862429299,152.82917754028315,26.505902777777738,30.84368055555567
31600,31600.0,1.895298025,-10.36118345,1.067436981,0.46283798049999997,-0.1053916935,0.2773033155,-48.359375,44.547577000000004,-139.37606499999998,10.591300447365553,0.5540096766536384,154.10647475430417,26.45980555555552,30.83136111111123
31700,31700.0,1.0902496000000002,-9.1731141,0.11711730472,0.322229004,0.508938596,-0.234991456,-48.3485409,43.8751223,-141.402737,9.245143386261564,0.6509672095422461,155.74768823382718,26.413708333333297,30.819041666666784
31800,31800.0,2.57872318,-9.3474148,0.736984254,0.203335572,0.56519166,0.18536377,-47.342529299999995,43.4515379,-143.511658,9.725209708977987,0.6290618969559811,157.2418060467491,26.367611111111074,30.806722222222337
31900,31900.0,1.89541014,-9.1697724,0.6984283440000001,0.169894408,0.27735596,0.20432434,-45.9815979,43.3540336,-144.700016,9.389991254494063,0.38437965398285817,157.89869889604802,26.321513888888852,30.794402777777897
32000,32000.0,2.77767944,-9.6009644,1.06066894,0.20781555,0.33445129399999995,0.327044682,-44.352876,43.967285600000004,-146.182246,10.051385097715224,0.5130362594098533,158.96413584545098,26.275416666666626,30.78208333333345
32100,32100.0,3.52227486,-9.6198822,1.25316776,-0.0808685328,0.435006716,0.153625484,-42.610015999999995,44.1966247,-146.925202,10.321786831591972,0.4684830535045698,159.2357097649326,26.229319444444407,30.769763888889013
32200,32200.0,2.12261966,-9.831048599999999,0.29524536108000005,-0.182705692,0.32444458,0.0694671628,-41.9657894,44.72030700000001,-146.41449,10.062954910715506,0.3812123745331621,158.73958587881515,26.183222222222184,30.75744444444457
32300,32300.0,3.2765732000000005,-11.715099375,-0.891139975,-0.5304183975,-0.6035118075,-0.15840148999999998,-42.5791929,45.768432700000005,-144.936218,12.209406797363249,0.8221184676615848,157.84261578588115,26.137124999999962,30.74512500000012
32400,32400.0,0.03632355,-9.6501005,0.10903930575,-1.7858314750000002,-0.3662300125,-0.77411652,-46.02447539999999,46.7179866,-138.58703400000002,9.653112953226744,1.980908598953388,153.32117939762526,26.09102777777774,30.73280555555568
32500,32500.0,1.7424811999999998,-11.0213855,-0.8794708225,-1.2345542999999999,-0.16542052875,-0.65614319,-49.2507936,46.7860416,-132.23953600000002,11.194866819157767,1.4080454405436704,148.6673452605495,26.04493055555552,30.720486111111235
32600,32600.0,1.8439368999999999,-7.8017769,-0.49579239,-0.13040161050000001,-0.3728866525,-0.5181884725,-51.8669136,45.5128476,-130.041809,8.033721546701084,0.6593100425214848,147.2158290944045,25.998833333333287,30.708166666666788
32700,32700.0,1.10952375,-8.141754125,-1.67943195,0.36547089,-0.7167015000000001,-0.190620425,-53.36364755,44.179078000000004,-129.368972,8.390629027544723,0.8278214267189977,146.75083812246518,25.95273611111107,30.69584722222235
32800,32800.0,3.384315525,-8.721752375,-3.5208702000000005,0.1433715775,0.033515929475,-0.1522674575,-53.944931200000006,43.693389399999994,-129.17297599999998,9.996315348290533,0.2204075597861776,146.64524319328228,25.90663888888885,30.683527777777904
32900,32900.0,3.71082157,-8.2096937,-1.94212952,0.14944000400000002,-0.400691222,0.0419815061,-54.34577935,43.4996791,-128.55774350000002,9.216357064304642,0.4356946965860853,146.19433339133008,25.860541666666627,30.67120833333346
33000,33000.0,2.2077392600000003,-8.67512185,-3.1310927900000003,0.57969816,-0.0684356686,0.10025329599999999,-54.26261915,42.731629,-129.47601450000002,9.509093619622393,0.5982582208533939,146.74628827413719,25.81444444444441,30.658888888889017
33100,33100.0,4.02373815,-13.4697482,-5.53965762,0.2308197126,-0.308432003,0.410458375,-53.0086513,43.2205966,-131.6372675,15.118298450397086,0.5692343574032832,148.34524758944403,25.768347222222186,30.64656944444457
33200,33200.0,-0.07609557800000005,-7.9484865000000005,2.0573776340000003,0.512167357,0.46580200299999996,0.183450313,-52.043991999999996,42.95524425,-133.98125000000002,8.310388932725719,0.7404708115131365,150.0157407787251,25.722249999999963,30.63425000000013
33300,33300.0,1.9862746999999998,-10.5375761,0.30135193000000005,0.4973541229999999,-0.110621643,0.119741822,-51.2633516,43.0371095,-136.43165100000002,10.733913720275156,0.53003063215785,151.96618356451768,25.676152777777734,30.621930555555693
33400,33400.0,2.80700989,-9.64944165,0.4125656168,0.527932736,0.37418517799999995,-0.0919250488,-51.16546715,42.116014,-138.31138950000002,10.065488681915028,0.655432762062582,153.3678832731007,25.630055555555515,30.609611111111242
33500,33500.0,2.015662365,-9.2114793,0.73542174,0.282917784,0.319749452,0.184731289,-50.692521,41.442413,-140.68596000000002,9.45985677682558,0.4657998242923657,155.17650215241767,25.58395833333329,30.5972916666668
33600,33600.0,2.51276394,-9.631905625,0.428780363,0.2703460695,0.374711611,0.258870699,-49.24674935,41.4457698,-142.348478,9.963742485698814,0.5296653672149411,156.2244738961479,25.53786111111107,30.58497222222236
33700,33700.0,3.223175845,-9.0447337,1.052359,0.252877804,0.1045677174,0.341741952,-47.888945899999996,41.6162092,-143.02360900000002,9.663792731849805,0.4380547650810901,156.4641303518082,25.49176388888885,30.57265277777791
33800,33800.0,2.76372982,-9.7466507,0.5912857175,-0.012906646789999995,0.45179062799999997,0.2448570225,-46.2383269,41.897201700000004,-143.56566999999998,10.152869071635859,0.5160153668850299,156.53904222945658,25.44566666666663,30.560333333333467
33900,33900.0,3.20774153,-10.51554435,1.434228505,-0.20646591050000002,0.056153106900000006,0.1038200394,-45.0505055,42.08679235,-143.0159765,11.088072947535887,0.2545636854122148,155.73830900645842,25.39956944444441,30.54801388888902
34000,34000.0,2.030142985,-11.364351,-2.242838285,-0.863144681,-0.527346041,-0.3259040875,-45.80299385,42.3579394,-141.228863,11.763221778086093,1.0648338233289112,154.39467681612982,25.35347222222218,30.53569444444458
34100,34100.0,-0.66877747,-10.5590664,0.027993013999999983,-1.84915998,-0.28616791199999997,-0.6979492145,-48.287888,43.0918124,-133.555759,10.585945556373245,1.9993362100946444,148.41102086708588,25.30737499999996,30.52337500000014
34200,34200.0,2.58422544,-9.4357634,-0.61574096,-0.858724976,-0.048400879800000005,-0.55925596,-50.32119715,42.51976060000001,-128.67309799999998,9.805774537939547,1.0289785046398208,144.55775283887672,25.261277777777728,30.511055555555693
34300,34300.0,1.63731688,-7.5050812,-1.2973755,0.20867004600000003,-0.617254628,-0.502154552,-52.07099945,40.6594097,-126.67182925,7.790818880143774,0.8251179945870823,142.8647459106119,25.215180555555516,30.49873611111125
34400,34400.0,1.93037108,-8.683505,-2.68553466,0.284732056,-0.5825286820000001,-0.09117126560000001,-52.55767775,39.700470200000005,-126.57890330000001,9.295338272574053,0.6550979866346373,142.69077538768613,25.169083333333287,30.486416666666802
34500,34500.0,3.51964414,-8.238418600000001,-3.16629028,0.14305114800000002,0.05024109,0.023233032,-52.63817204761904,39.33229023809524,-126.5691819047619,9.50275614776106,0.1552160901630581,142.6098510827891,25.122986111111068,30.474097222222362
34600,34600.0,4.3954346,-8.985650399999997,-2.8442688,0.41405029200000004,-0.51690979,-0.08116760099999999,-52.253723,39.12506,-126.26495,10.418069315305557,0.6683397985405481,142.14098453952968,25.076888888888845,30.461777777777918
34700,34700.0,-0.312036136,-10.5744448,-0.794592282,0.7553649720000001,0.15506286400000002,0.46467895600000003,-51.773070000000004,38.656616,-128.02277,10.616022709498287,0.9081414014410368,143.4036762997004,25.030791666666627,30.449458333333478
34800,34800.0,2.360014315,-8.420855699999999,0.2962592799999999,0.014943695399999991,1.179414365,0.12560425125,-50.811768,39.227295,-129.97894,8.968541352844483,1.1871030065525543,144.96600044088424,24.9846944444444,30.43713888888903
34900,34900.0,3.245322415,-10.182753300000002,-0.2791755655000001,0.560736075,0.23623886149999998,0.43037414,-49.160767,39.224243,-131.62384,10.721804125228836,0.7456359227746793,145.87720009410975,24.938597222222175,30.42481944444459
35000,35000.0,1.896847575,-9.32831655,1.153746025,0.49202575,0.1031837465,0.14377059825000002,-48.58551,38.851929999999996,-133.86536,9.594532166889486,0.5272144407868457,147.61422307696031,24.892499999999963,30.412500000000144
35100,35100.0,1.51910705,-8.807222549999997,1.10197906,0.2905288695,0.4476318325,-0.0957069413,-48.30017,38.38501,-135.61706999999998,9.016807497513293,0.5434493376738381,148.99095640378275,24.84640277777773,30.4001805555557
35200,35200.0,2.12699203,-9.72863075,0.4396194465,0.259474182,0.502658075,0.2253128065,-47.521972999999996,38.28888,-136.43646,9.968172339281447,0.6089817117604919,149.46331946935587,24.80030555555551,30.387861111111256
35300,35300.0,2.857404395,-9.1349877,0.666646563,0.174155423,0.26648865,0.28112792649999996,-46.067809999999994,38.476562,-138.07831000000002,9.594913758796492,0.4250332293207906,150.55998350820857,24.75420833333329,30.37554166666681
35400,35400.0,1.68951415,-9.5899505,1.38305665,0.108207705,0.196502685,0.19154358,-45.387268,38.380432,-138.57574,9.836422723518648,0.2957166407147578,150.7856006837458,24.70811111111107,30.363222222222372
35500,35500.0,2.34252925,-9.385246250000002,1.080184915,0.0128707875,0.579994205,0.257591245,-43.737792999999996,38.661194,-140.06653,9.737614173473824,0.6361858767085817,151.74424300202426,24.662013888888847,30.350902777777925
35600,35600.0,3.62043765,-11.110863,1.06282805,-0.0558319085,0.203422545,0.15852356,-42.271423,38.746643,-139.95361,11.7397033970811,0.26541906584647423,151.2454577772386,24.61591666666662,30.33858333333348
35700,35700.0,2.22341925,-10.214836,-1.6049118,-1.1775589000000002,-0.712173465,-0.609535225,-43.525696,39.118958,-136.73401,10.582118511297999,1.5115953168186251,148.7311957121649,24.5698194444444,30.32626388888904
35800,35800.0,-0.25673371300000003,-10.91477875,0.4447608945,-1.48493882,-0.5856742845,-0.5031646635,-45.637512,39.105225,-130.61066,10.938115837932026,1.673752802391293,143.7746348612521,24.523722222222176,30.313944444444594
35900,35900.0,1.26981355,-9.0091169,-1.01844942,-0.7835250815000001,0.03756256169999999,-0.40996018100000003,-47.17865,39.097595,-126.73645,9.16424529528623,0.890588683748246,140.77135613898525,24.477624999999954,30.301625000000147
36000,36000.0,2.009204855,-8.653275125,-0.7470085049999999,0.08450393619999999,-0.751692212,-0.4013778715,-48.339844,38.247679999999995,-125.88348400000001,8.922195616349956,0.8589254064494991,140.16517786991528,24.431527777777728,30.28930555555571
36100,36100.0,1.23246612,-8.370343400000001,-3.251583135,0.0003479010000000046,-0.2945884665,-0.31893005399999996,-49.302673,37.017821999999995,-124.71008,9.066247310812583,0.443328004651834,139.11749266061048,24.385430555555512,30.276986111111263
36200,36200.0,3.38454365,-8.113682675,-1.881800835,0.011593627549999992,-0.2658821075,0.0025596618499999987,-49.298096,37.10785,-123.9151,8.994113908549172,0.26975678287040195,138.4277674776911,24.339333333333286,30.264666666666823
36300,36300.0,4.13220215,-8.928543,-3.6878662,0.379852295,-0.26583099,-0.31285858,-49.78805525,36.5337373,-123.87138329999999,10.507839852132642,0.5609181466321775,138.41129542507863,24.293236111111067,30.252347222222376
36400,36400.0,1.0059662,-8.446716200000001,-2.53625485,0.6988983,-0.094848634,0.15159607649999998,-50.34316980000001,35.89950585,-125.3084537,8.891817602179954,0.7310866664629145,139.73346101465484,24.24713888888884,30.24002777777793
36500,36500.0,5.241819752631579,-13.093991789473685,-5.4676746684210515,0.18264208473684213,-0.12384434621052633,0.4215264547368421,-48.539734,37.591553000000005,-127.29796999999999,15.149569585317053,0.539287064471216,141.3294159043455,24.201041666666622,30.22770833333349
36600,36600.0,-1.184243776,-8.069626040000001,1.98771056,0.487338256,0.419244382,0.26994934000000004,-48.05572555,37.8027333,-129.59068200000002,8.463898633611871,0.7182385072728268,143.29045552538898,24.1549444444444,30.215388888889045
36700,36700.0,2.150576745,-9.8594793,0.8383155695000001,0.48003845,0.206726066,0.11990661650000001,-46.63002185,38.101960999999996,-132.62313799999998,10.1336780902117,0.5691702892843308,145.65379714112515,24.10884722222217,30.203069444444605
36800,36800.0,2.69101103,-9.9383015,0.0009994500000000126,0.511947635,0.280229183,-0.04824676548,-46.531677,38.08441,-134.22852,10.298082535961084,0.5928757859792997,147.08132046888494,24.062749999999948,30.19075000000016
36900,36900.0,2.007938425,-9.07609525,1.08976365,0.1952972375,0.3895759675,0.062381746325,-46.051025,37.709045,-135.82916,9.362337399988238,0.4437068423036796,148.29777370098395,24.01665277777773,30.178430555555714
37000,37000.0,1.9739837842105263,-9.867859368421053,0.1848554078947368,0.32011815,0.2381318736842105,0.30048089631578945,-44.888306,37.80365,-137.30164,10.066883813120263,0.5005326732162906,149.31783656201873,23.97055555555551,30.16611111111127
37100,37100.0,2.518869,-9.1886813,0.9957915999999999,0.0912719732,0.23537903,0.25396423,-43.626404,38.085938,-138.46283,9.580872768036489,0.3582194944132707,150.0858324123898,23.924458333333288,30.153791666666827
37200,37200.0,1.900450052631579,-9.500983315789474,0.3882277736842105,0.24223487947368424,0.3096707,0.2765438710526316,-42.456055,38.079834000000005,-138.81683,9.6998505416268,0.4816328474254036,150.07565643661027,23.878361111111058,30.141472222222387
37300,37300.0,2.61660458,-10.0807579,1.8223296999999998,-0.04422683695,0.48326569,0.2739440795,-40.32135,38.735962,-140.3305,10.573717033475091,0.5575204164121444,151.05937656477315,23.83226388888884,30.129152777777943
37400,37400.0,1.711119845,-11.0866778,-1.064833070675,-0.17690124649999994,-0.3103027325,-0.08835830730000001,-39.634705,38.825990000000004,-139.8758,11.278418868943788,0.3748537173992253,150.4779278351384,23.786166666666613,30.116833333333496
37500,37500.0,1.51545717,-9.42672485,-0.479158786,-1.678450045,-0.51370848,-0.5536605695,-40.99426261904762,40.25086923809523,-136.17583238095241,9.563332724561663,1.841425493865794,147.7989464837221,23.740069444444394,30.104513888889052
37600,37600.0,1.20133512,-11.5937802,-0.3806274420000001,-1.2662917999999999,-0.34092712,-0.58374937,-42.23175,41.073609999999995,-130.59845,11.66748398042187,1.4368146651168938,143.27078309584655,23.693972222222172,30.09219444444461
37700,37700.0,1.31589658,-8.00690153,-0.08793792790999999,-0.194535825,-0.040623473999999986,-0.577900683,-43.8867185,41.2615205,-127.03636399999999,8.119599566928715,0.6183227969697138,140.59445472531337,23.647874999999946,30.07987500000016
37800,37800.0,0.87417297,-8.455331,-1.72893376,0.1268493664,-0.62034911,-0.36910400200000004,-45.172958200000004,40.49842865,-126.342622,8.67596694158841,0.7330036543032278,140.15422844372327,23.60177777777773,30.06755555555572
37900,37900.0,2.15505979,-8.284992599999999,-1.95135349,0.07262878730000001,-0.212460327,-0.09650268599999999,-46.197356799999994,40.3135697,-125.7014465,8.780393781485294,0.2449932555824305,139.85792253020932,23.555680555555504,30.055236111111284
38000,38000.0,4.15782023,-9.603114,-3.67338713,0.42108612,-0.359892274,0.0642471317,-45.9087369,40.51071029999999,-126.0009002,11.093061924813421,0.557807346780911,140.0891061568756,23.509583333333282,30.042916666666837
38100,38100.0,1.92438047,-7.448459,-2.20154881,0.250428773,-0.421357728,-0.30295410100000003,-46.410292,40.1416768,-126.3045535,8.008240691009025,0.5771059253160948,140.4211969660558,23.46348611111106,30.03059722222239
38200,38200.0,1.98878479,-11.76783755,-2.73927918,0.5979080170000001,-0.17336578800000002,0.49759979200000004,-45.80879205,40.633314899999995,-128.0799837,12.249948836128034,0.7977610247790999,141.964826526483,23.41738888888884,30.018277777777943
38300,38300.0,-1.02885591,-7.319769399999998,1.78288418,0.41821136200000003,0.81935577,0.13700103605,-45.0460815,41.5540315,-129.4165,7.6242237748779385,0.9328684807179116,143.19400556576105,23.371291666666608,30.005958333333503
38400,38400.0,2.85795135,-10.559299099999999,-0.0858467105,0.449311068,0.53450547,0.160218047,-43.6097725,41.9374086,-131.4054905,10.939796266877506,0.7188652188481501,144.66500855626688,23.32519444444439,29.99363888888906
38500,38500.0,3.0220603550000003,-9.78447685,1.434947165,0.609905235,-0.2599647505,0.15377273449999998,-43.246613,41.865081700000005,-132.88223,10.341007883588118,0.6812847304096475,145.87885953305567,23.27909722222217,29.98131944444461
38600,38600.0,0.9570716920000001,-9.039700025,0.331872562787,0.18991165350000003,0.5422813315,-0.15641860900000001,-43.4973146,41.259155299999996,-134.63104199999998,9.096842160813496,0.5965096125256075,147.37670741950026,23.232999999999947,29.96900000000017
38700,38700.0,2.490378555,-9.40524135,1.042963385,0.2280487035,0.27628403,0.200114442,-42.371978600000006,41.6078195,-135.646213,9.785183831913738,0.4106250341552649,148.0759748758191,23.186902777777725,29.95668055555573
38800,38800.0,2.03601307,-9.19537945,0.4215980575,0.1592872655,0.392397319,0.2987045425,-41.3847351,41.6926579,-137.06512800000002,9.427721252905783,0.5183676584449244,149.12353984155897,23.140805555555506,29.944361111111284
38900,38900.0,2.5244347,-9.54403965,1.50731126,0.132765964,0.3401023725,0.27212829250000004,-39.9971,42.2380077,-138.043825,9.987029523651133,0.4555552492716856,149.79963761719577,23.094708333333283,29.93204166666684
39000,39000.0,3.28794862,-9.29049365,0.9574851999999999,-0.055998992649999996,0.52118836,0.237457272,-38.6070253,42.640229,-138.74938999999998,9.901991682625358,0.5755914478219312,150.20034637286918,23.048611111111054,29.9197222222224
39100,39100.0,2.3562927000000005,-12.21759,0.16021729,-0.19804382,-0.46662903,-0.12910461,-37.8251643,43.1626895,-138.083653,12.44376511656292,0.5230984674056935,149.53550976633628,23.002513888888835,29.907402777777953
39200,39200.0,1.0035706,-9.904785,-1.0811768,-1.5839538999999998,-0.26635742,-0.54348755,-39.321137,44.1304016,-134.05624699999998,10.01403330922499,1.695651777199337,146.50918164838086,22.95641666666661,29.89508333333351
39300,39300.0,1.1172943000000002,-11.162933,-0.6095276,-1.3911438,-0.43147278,-0.36878967,-41.3719176,44.4796757,-126.777955,11.235254496915648,1.502483162254432,140.58010414563847,22.91031944444439,29.882763888889066
39400,39400.0,1.9421081999999998,-8.593964,-0.73521423,-0.25024414,0.084106445,-0.5296478,-43.1179806,44.3144223,-123.421174,8.841297498546112,0.5917962620190479,138.04253446888393,22.86422222222217,29.870444444444622
39500,39500.0,0.7845001,-7.9690704,-2.0436401,0.25468445,-0.53266907,-0.16638184,-44.4374088,43.410797,-122.75482099999999,8.264259694938449,0.6134194518339413,137.5788025662977,22.81812499999995,29.858125000000182
39600,39600.0,2.5370636,-8.663391,-3.220398,0.04801941,0.11286926,-0.08862305,-44.5349122,43.52417020000001,-122.5630155,9.584466527028509,0.15132540626411084,137.47512547996493,22.772027777777723,29.84580555555573
39700,39700.0,2.816218595,-8.5040554,-2.401880675,0.2237449685,-0.403884891,-0.0876029955,-44.462433700000005,43.143158,-122.301024,9.275135799445527,0.4705320584237288,137.09771033023878,22.7259305555555,29.833486111111288
39800,39800.0,2.649046325,-8.4023021,-2.09775314,0.645748875,0.08906784209999999,-0.1475852975,-45.0447082,43.056183,-123.398439,9.056746702307992,0.6687755572050104,138.2390524414741,22.67983333333328,29.82116666666685
39900,39900.0,1.668328125,-12.826370225,-3.10512083,0.569477855,-0.1401756315,0.4114151,-44.4363403,43.386537,-126.07101100000001,13.308720602699001,0.7199372361403067,140.53794779857608,22.633736111111048,29.808847222222404
40000,40000.0,-1.69290005,-7.232193749999999,1.366539013,0.4584236285,0.557255532,0.16283340300000002,-43.954621,43.6898044,-126.873551,7.558827863727838,0.742912286172168,141.20106347235338,22.587638888888836,29.796527777777964
40100,40100.0,1.69651258,-9.91681655,0.37000886,0.5430038454999999,0.5340835565000001,0.06589736935,-42.60658400000001,44.247359,-129.40765349999998,10.076591756833423,0.7656242259120223,143.24632314188705,22.541541666666607,29.78420833333352
40200,40200.0,3.071991745,-9.90550525,0.73703611,0.465609737,0.4128524765,0.028817749149999995,-42.03971895,43.75312805,-130.80871399999998,10.397828101168484,0.6235797434885673,144.1964395418471,22.495444444444384,29.771888888889073
40300,40300.0,1.671678145,-9.027127,1.1363876350000002,0.166156768,0.5562370295000001,-0.03924713125,-42.2152708,43.51562465,-132.6153535,9.250686556562485,0.5820539504052159,145.8169966463341,22.449347222222165,29.75956944444463
40400,40400.0,2.22820893,-9.624550099999999,1.160516395,0.307731633,0.33306884800000003,0.17236939,-41.47117635,43.55972275,-133.8916,9.948316354842817,0.4855944876580164,146.77966932792228,22.403249999999947,29.747250000000186
40500,40500.0,2.9901596,-9.690266699999999,0.759968566,0.0570846562,0.38611602899999997,0.361660771,-40.31456025,43.62762405,-134.9563585,10.171821391809123,0.5323423368037647,147.45156155873462,22.35715277777772,29.734930555555746
40600,40600.0,2.13244321,-9.6344819,1.24418335,0.14038239,0.249760435,0.212321475,-38.9997862,44.092865100000004,-135.939022,9.946350774467462,0.3566710768187471,148.1371645802237,22.311055555555495,29.722611111111302
40700,40700.0,1.77235722,-10.090815800000001,0.93761293,-0.004072570840000001,0.54931032,0.28070221100000003,-37.599182,44.72084080000001,-136.15623349999998,10.289316520703672,0.6172559427464335,148.16273157559075,22.264958333333283,29.71029166666685
40800,40800.0,2.74607846,-10.9892454,1.08186641,-0.15895843599999998,0.0651550291,0.08161163327000001,-36.26502965,45.0035105,-136.496964,11.381264265569394,0.19517715951121548,148.22921182304938,22.21886111111105,29.697972222222408
40900,40900.0,1.5273132500000002,-9.9172346,-1.4576645,-1.18097535,-0.388966372,-0.302098083,-37.134017799999995,45.6185161,-134.10064699999998,10.141028251060641,1.2796419610385013,146.4345146126654,22.172763888888827,29.685652777777968
41000,41000.0,0.02189331105,-11.424865400000002,-0.001220703399999995,-1.60867006,-0.42811279,-0.58657684,-39.22683715,46.1226651,-126.466141,11.426376579755583,1.7666808822005544,140.21327771272374,22.12666666666661,29.673333333333527
41100,41100.0,1.31165462,-9.157557699999998,-0.827031713,-0.806098915,-0.029126739649999997,-0.47456359600000003,-41.17790265,45.58738685,-121.68265990000002,9.288964306584255,0.9376805631733874,136.31048269532465,22.080569444444386,29.66101388888908
41200,41200.0,1.460752845,-8.15683915,-0.987020846,0.1817687975,-0.418109125,-0.401646415,-42.69104,45.20111,-121.10901000000001,8.349332024369383,0.6091834978897361,136.13617280022896,22.034472222222167,29.648694444444644
41300,41300.0,1.349420965,-8.840739525,-2.91897285,0.12269516325,-0.537046055,-0.0081352237,-43.1609349,45.15960695,-120.704043,9.413058999287957,0.5516833792279258,135.91072237008223,21.988374999999944,29.636375000000196
41400,41400.0,3.191996045,-8.968768525,-2.26295395,-0.0442848208,0.049922944500000004,-0.17645111149999998,-43.4926607,44.5535284,-120.29640400000001,9.785482733300237,0.1958221002281804,135.454256154443,21.94227777777772,29.62405555555575
41500,41500.0,3.116701505,-8.275404775,-2.64440918,0.28536835050000003,-0.5297943095000001,-0.1770416295,-43.7841037,44.59739675,-119.94651875,9.230132654798926,0.6279185297460295,135.2522147749491,21.896180555555496,29.611736111111302
41600,41600.0,1.0974274,-9.689069,-1.96607052,0.73469237,-0.044140625200000005,0.22243347,-43.81660435,44.871597,-121.14021240000001,9.94997127049426,0.7707279408387122,136.41236537501678,21.850083333333274,29.599416666666865
41700,41700.0,3.90678402,-11.4325286,-4.59778444,0.07934265,-0.14790649200000006,-0.034295653999999995,-42.82913145,45.4551705,-122.753374,12.964711887911866,0.369744057536745,137.72765121967922,21.80398611111105,29.587097222222422
41800,41800.0,0.9772339,-8.648068199999999,-0.767541492,0.595993032,0.118203736,0.372637944,-42.809737578947356,45.878038947368424,-124.03411684210528,8.766493891074491,0.7134902091994582,139.00349913511062,21.757888888888825,29.574777777777967
41900,41900.0,-0.43796997,-9.312942800000002,0.68047486,0.33734741,0.435006712,0.0225952144,-42.1636966,46.339721600000004,-126.733096,9.365583241132477,0.5625644324090371,141.37343143587626,21.711791666666606,29.56245833333353
42000,42000.0,2.54808044,-9.8375093,0.777203368,0.575973532,0.0988159182,0.0652008054,-41.388855,46.26556520000001,-127.90253,10.199663124638503,0.5899212163137693,142.17108575907963,21.665694444444384,29.550138888889087
42100,42100.0,2.07952576,-9.2933046,0.337393188,0.22464294199999998,0.5110718,-0.008514404200000002,-41.60927178947368,46.35523731578947,-130.07450894736843,9.530417501767477,0.5597644916043009,144.22040496543616,21.61959722222216,29.537819444444647
42200,42200.0,2.53873898,-9.8109284,1.0087189,0.249780272,0.16357727,0.13188171,-41.248473,46.2954708,-130.619504,10.187448697051892,0.32664090123408224,144.58966523090075,21.573499999999942,29.5255000000002
42300,42300.0,2.072582275,-9.4765245,0.573810575,0.147895815,0.3389739975,0.30020523250000003,-40.108337,46.7312624,-132.162174,9.723451772164422,0.476678678652181,145.80585215852219,21.52740277777772,29.513180555555763
42400,42400.0,1.9630470000000002,-9.7635265,1.626071975,0.154823305,0.17838669,0.1731643675,-39.173279,46.839905,-132.511598,10.091799982872896,0.29372694321772563,145.9035736086405,21.48130555555549,29.500861111111316
42500,42500.0,2.0417595,-9.637527375,0.8153267,0.044834136875,0.500633245,0.20007324,-38.3007808,47.1231094,-133.406676,9.889078702345154,0.5422541953445171,146.57728848550542,21.43520833333327,29.48854166666687
42600,42600.0,3.0422402,-10.2414665,1.79366305,-0.101917265,0.23963928,0.16917037750000002,-37.2857668,47.3995972,-133.15673600000002,10.833504820975566,0.3134053599798328,146.1771430623645,21.38911111111105,29.476222222222425
42700,42700.0,1.5401726,-11.272777625,-1.348724375,-0.29525757,-0.47195053,-0.179962155,-37.0883188,47.8314208,-132.311098,11.461816016257096,0.5944483243172003,145.49804217656228,21.34301388888883,29.46390277777798
42800,42800.0,0.3879623275,-9.38913375,0.2209701425,-1.851871525,-0.48127365,-0.5868987975,-39.0823374,47.9846188,-125.77941799999999,9.409463740929008,2.00287024817802,140.1802358563353,21.296916666666604,29.451583333333534
42900,42900.0,1.26526642,-11.365604,-0.5233337313499999,-1.34267271,-0.28308258199999997,-0.624555978,-41.3754274,46.8292224,-118.219605,11.452596196254385,1.5089074773046982,133.71937396154456,21.250819444444378,29.439263888889087
43000,43000.0,0.7973098679999999,-7.56959379,-0.5867782420000001,-0.2042251582,-0.519891365,-0.541145329,-43.21777460000001,45.194396000000005,-114.36279499999999,7.636601889531717,0.7839097257450741,130.34258244852043,21.204722222222163,29.426944444444647
43100,43100.0,0.442378236,-8.6516614,-1.45861968,0.358761594,-0.32047119,-0.32745360900000003,-44.7531126,44.253846,-113.975828,8.79095043217854,0.5836286061479942,130.19884786655751,21.158624999999933,29.41462500000021
43200,43200.0,2.61224367,-8.20812965,-2.98911434,0.0837142962,-0.077908324,-0.17608184600000001,-45.0061036,44.3310544,-113.906252,9.119558670829948,0.2311794248323761,130.25149557093567,21.112527777777714,29.402305555555763
43300,43300.0,3.49271085,-8.882344,-3.12522434,0.216450497,-0.364039614,0.08650817899999999,-45.1409924,44.293518,-113.583376,10.045587539923329,0.4332249385182129,130.0032033020745,21.06643055555549,29.389986111111323
43400,43400.0,3.11813811,-8.500350599999999,-3.12306976,0.416500854,-0.284045409,-0.045051575100000005,-45.20813,44.5071408,-114.7662372,9.582961326368189,0.5103748922729621,131.13338687007808,21.02033333333327,29.37766666666688
43500,43500.0,1.5678437684210529,-12.740782263157895,-3.510788794736842,0.6755186384210526,-0.1805805389473684,0.4211915736842105,-44.441528399999996,45.739136,-116.061402,13.337717504923784,0.8399472807986509,132.42892184443122,20.974236111111047,29.36534722222243
43600,43600.0,-1.378115095,-7.262599000000001,2.761995755,0.3194564845,0.8193069550000001,0.19069289900000005,-44.16503875,45.8576205,-117.73109450000001,7.899138337157109,0.9160358200707748,133.84369715645036,20.928138888888824,29.353027777777985
43700,43700.0,3.045467395,-9.9570406,0.1915214505,0.45000457850000003,0.47804871,0.05689849860000001,-43.050022736842095,47.107897894736844,-119.97480105263156,10.440139537180023,0.6670418597977459,135.8915721040151,20.882041666666602,29.340708333333545
43800,43800.0,3.15954745,-9.961282,0.8383171140000001,0.573363486,-0.115621186,0.035165405000000004,-43.41507075,47.22061125,-121.7319475,10.488154271864923,0.5908891008109183,137.59845510336012,20.83594444444438,29.3283888888891
43900,43900.0,1.30399095,-9.271460875,0.3252960205,0.26261901800000004,0.231760402,-0.1198936475,-43.88771125,46.8528755,-123.5435465,9.370600012080137,0.3768400851466575,139.22762588296268,20.78984722222216,29.316069444444658
44000,44000.0,1.947670745,-9.56343415,0.98047331,0.286483755,0.24134826899999998,0.234795379,-43.776703000000005,47.167969,-125.347135,9.81090965459384,0.44249794619803495,140.9011352501218,20.743749999999935,29.30375000000021
44100,44100.0,2.387005575,-9.67942955,0.3266746505,0.237374882,0.217970277,0.306541441,-42.39578275,47.5917825,-126.59492375,9.976622626205232,0.4449872485216946,141.73456609678502,20.69765277777771,29.291430555555767
44200,44200.0,2.53562624,-9.4920288,1.12411804,0.08722534400000001,0.21556396600000002,0.14616088800000002,-41.81747375,48.111725,-127.342225,9.890172026948543,0.27582854712634186,142.40605183349425,20.65155555555549,29.279111111111327
44300,44300.0,1.90834656,-9.602395399999999,1.12387998,0.21356811399999998,0.410937496,0.292529296,-41.72553975,48.28071575,-128.2657625,9.854791916543403,0.5487100774138445,143.2627849846931,20.605458333333267,29.266791666666883
44400,44400.0,2.34600522,-10.5732454,1.68292544,-0.0495483392,0.331893922,0.268878172,-40.361785,48.4405515,-128.749465,10.961071672245502,0.43220762260201584,143.35974983589114,20.55936111111105,29.254472222222443
44500,44500.0,1.2745941,-11.5752136,-1.35028076,-0.508889764,-0.20798034399999998,-0.25416565,-40.77110275,48.67401200000001,-127.46543999999999,11.730981810925284,0.6078673809337977,142.40416637959564,20.513263888888822,29.242152777778
44600,44600.0,0.004718021999999988,-9.4336062,-0.31575317199999997,-1.97980646,-0.5737976,-0.69390564,-43.33992,47.808075,-120.75043000000001,9.45521106210146,2.177192582933292,136.9116362150332,20.4671666666666,29.22983333333355
44700,44700.0,0.72130432,-10.6364562,-0.220697022,-1.3536438,-0.1180725084,-0.491717512,-45.3781125,45.13511625,-113.13247549999998,10.66548645501032,1.4450819448139045,129.98233531113965,20.421069444444374,29.21751388888911
44800,44800.0,1.0579253999999998,-7.04179382,-0.10529785,-0.0623291008,-0.292352298,-0.378372196,-47.30834925,43.22013825000001,-111.156085,7.123517332573226,0.5101127349202725,128.3033653929994,20.374972222222155,29.205194444444665
44900,44900.0,1.5949401600000002,-9.838705599999999,-3.37458194,0.487127684,-0.69821776,-0.038980101700000006,-47.3766325,43.42918375,-110.082629,10.54708938466602,0.8566621890733468,127.47087981937908,20.328874999999933,29.19287500000022
45000,45000.0,1.71470718,-8.36136855,-2.265953075,0.2385459925,0.211572268,-0.403082271,-48.3509065,42.7253725,-110.43662875,8.83347907914559,0.5199178489090732,127.90435403397842,20.28277777777771,29.180555555555774
45100,45100.0,3.24760052,-8.4295343,-3.38105079,0.00158233629,-0.408724218,-0.03956604105,-48.7926485,42.84858675,-110.70480375,9.648181723353034,0.4122394672852908,128.34446438300984,20.236680555555488,29.168236111111327
45200,45200.0,2.02536471,-9.18030245,-2.18807909,0.6684890575,-0.06507339455,0.06930160475000001,-49.307251,42.806245,-111.0866545,9.657231261123297,0.6830821491091973,128.85602439995222,20.190583333333265,29.15591666666689
45300,45300.0,3.4600226999999997,-12.00006965,-4.66679915,0.2013671854,-0.17868499775,0.20911559875,-48.9177705,44.0711975,-114.1178125,13.34187757349006,0.3436514896965194,131.7501469775217,20.144486111111046,29.143597222222446
45400,45400.0,0.6434295635,-8.254816900000002,1.181516295,0.391520695,0.3609169035,0.2743118295,-49.6644589,44.06479,-115.769653,8.403860818291784,0.6049270633787422,133.45776328525957,20.09838888888882,29.131277777778006
45500,45500.0,0.38874589530000003,-9.455568800000002,0.2759155305,0.43482437049999995,0.24656905840000004,-0.03786316095,-49.46281,45.20408252631579,-118.07604526315791,9.474167041814047,0.5325374090425392,135.76427728150128,20.0522916666666,29.11895833333356
45600,45600.0,3.2772292999999997,-10.216867,0.17039413450000002,0.555619835,0.237197115,0.0105545046,-49.298095,45.4925541,-120.1348885,10.73467224713194,0.6102036058649909,137.59490046192872,20.006194444444372,29.106638888889112
45700,45700.0,1.7495491200000002,-9.06879145,0.381982419,0.2027572625,0.4298461875,0.03110961915,-49.8597705,45.571441,-122.4649042,9.248270615046962,0.4776871223899872,139.8587401833227,19.960097222222156,29.09431944444467
45800,45800.0,1.781449155,-9.54823265,0.3713241545,0.31098708399999997,0.2958358775,0.23132476649999997,-49.59090405263158,45.896108789473686,-123.4432047368421,9.720753820148953,0.4887746823275595,140.7266993550309,19.91399999999993,29.082000000000228
45900,45900.0,2.64360048,-9.521475,0.8317932100000001,0.141555786,0.36022644,0.249063112,-48.817290899999996,46.487427000000004,-125.3553748,9.916778904097328,0.4602848675959088,142.33129896233353,19.867902777777708,29.069680555555788
46000,46000.0,2.17553708,-9.682843199999999,0.95868532,0.119827272,0.262219236,0.125070188,-48.3229064,46.946563,-127.1032715,9.970560476984529,0.3153420035755883,143.85545517605732,19.82180555555549,29.05736111111134
46100,46100.0,2.45086976,-9.5763,0.954855364,0.001361084000000002,0.556024184,0.133801272,-48.2220454,46.8751532,-128.28537300000002,9.931420260417054,0.5723307551840869,144.84403138941462,19.775708333333267,29.045041666666894
46200,46200.0,3.05588986,-10.0134766,1.32403868,-0.154797362,0.1944763184,0.22840271,-47.6036085,46.94366475,-128.5366075,10.554784503459887,0.3462982653685767,144.88448738354313,19.72961111111104,29.032722222222446
46300,46300.0,2.22892764,-10.986007800000001,-1.2274628,-0.87150876,-0.5597320499999999,-0.307632448,-48.34518425,46.512605,-126.43127625,11.281062255455954,1.0844217113432673,143.12838599713663,19.683513888888818,29.02040277777801
46400,46400.0,-0.33585662650000003,-10.31437355,0.1579414365,-1.4640076000000002,-0.2697624255,-0.6217819370000001,-50.69046125,44.67620825,-120.13854750000002,10.322456313304869,1.6149169153452696,137.8366868317639,19.6374166666666,29.00808333333357
46500,46500.0,0.996695725,-10.60041955,-0.8577972540000001,-0.9185966320000001,-0.046703338399999995,-0.5023139975,-52.8709415,42.23175025000001,-115.67115875,10.685449655317088,1.0483386333660658,134.01059646250528,19.59131944444437,28.995763888889122
46600,46600.0,1.729972845,-8.17209925,-0.6056861885,-0.050032808000000005,-0.4796226485,-0.45102616,-54.14734,40.36369325,-114.59312375,8.377688500415415,0.6645755844748527,133.01436237471722,19.54522222222215,28.98344444444468
46700,46700.0,1.6002143999999998,-8.913223599999998,-2.57749173,0.031782531749999995,-0.6846298279999999,-0.343595119,-55.01174925,39.250946,-113.306045,9.428876433458957,0.7674220745516053,131.92891191964418,19.499124999999932,28.971125000000235
46800,46800.0,2.13076096,-7.673629735,-1.96248702,-0.04028778075,-0.1476310745,-0.14705123875,-55.5708315,37.9733271,-111.8331905,8.203042485661765,0.21921790999050345,130.52494581172942,19.453027777777702,28.958805555555788
46900,46900.0,3.515869905,-8.54164245,-3.442878,0.452076722,-0.325213624,0.2142402665,-55.0027459,38.6355594,-112.439269,9.859751458825107,0.5972511564718961,130.99850006060643,19.406930555555483,28.94648611111135
47000,47000.0,2.34067687,-9.854687400000001,-3.30071637,0.42896881299999995,0.06701202380000001,0.1221412647,-54.6531676,39.208832,-113.962097,10.671814803509855,0.457743866324392,132.3316332623071,19.36083333333326,28.934166666666908
47100,47100.0,4.60009078,-11.4422849,-3.416721305,0.17873687800000002,0.04032898100000002,0.17956237049999996,-53.9631655,40.3244,-116.6072084,12.817767899845707,0.3223192274297975,134.66746743949494,19.31473611111104,28.92184722222246
47200,47200.0,0.4315414385,-8.27858735,-0.7194702135,0.6835075469999999,0.362364189,0.366625218,-53.95919789999999,41.024629,-118.617245,8.357021854800657,0.8577830259692251,136.61922111419273,19.268638888888816,28.909527777778017
47300,47300.0,1.224082205,-9.44581875,1.316677875,0.42433013950000004,0.175354765,0.17396469350000002,-53.274077899999995,41.671906,-122.528076,9.617993204951462,0.5397079217654931,139.95653268173848,19.222541666666594,28.89720833333357
47400,47400.0,2.2892600789473683,-9.801135157894738,0.6163739631578948,0.4370743610526316,0.29240337052631576,-0.040181210526315785,-52.69256609999999,42.0278928,-124.611051,10.085810287272377,0.530674228004565,141.67137829073502,19.17644444444437,28.884888888889126
47500,47500.0,1.60272215,-9.0721965,0.57860565,0.20036316,0.355751035,-0.082763672,-53.181966,41.373698,-126.65964666666666,9.233045370539744,0.4171588007647367,143.46710827888168,19.13034722222215,28.87256944444469
47600,47600.0,1.97083285,-9.5426635,0.546279905,0.31274415,0.24230194,0.21285248,-52.671814000000005,41.57012879999999,-128.26980799999998,9.759524772942227,0.4501632976852363,144.7602972825685,19.084249999999926,28.86025000000024
47700,47700.0,2.605896,-9.001571499999999,0.7671432499999999,0.13057709,0.24283600000000002,0.32523346,-51.61031133333333,41.884358,-130.12186666666668,9.40751328639926,0.4292223841515074,146.11525991588846,19.038152777777704,28.847930555555802
47800,47800.0,2.24556735,-10.03227975,0.582191465,0.12525940000000002,0.24230194,0.26238250500000004,-50.4794308,42.640685999999995,-131.342165,10.297613381403398,0.3824070822935297,147.02779726191463,18.992055555555478,28.835611111111355
47900,47900.0,3.37683105,-9.6940995,1.13285825,-0.0760803225,0.404762265,0.15958405,-49.507142,42.79724075,-132.706527,10.328913554147137,0.4417580689258593,147.9650164721824,18.945958333333262,28.823291666666908
48000,48000.0,2.40897375,-11.3682405,0.059066779999999985,-0.16875457500000002,-0.7814102300000001,-0.154129025,-49.12216175,42.8862745,-132.0191215,11.640681781030553,0.8163602685900062,147.24565544917178,18.89986111111104,28.810972222222468
48100,48100.0,0.2212677,-9.9736175,-1.11828612,-1.5120544,-0.40804291,-0.55041504,-51.181564200000004,42.0259861,-128.46816850000002,10.063717535125368,1.6603658145564242,144.53339686910525,18.85376388888881,28.798652777778024
48200,48200.0,0.8458557025,-11.52715675,-0.6056884835,-1.377348355,-0.15327529825000002,-0.419812012,-52.4130235,41.062165500000006,-122.89054750000001,11.576579999579025,1.4493156917047814,139.76897104386828,18.807666666666588,28.786333333333577
48300,48300.0,1.96759873,-8.4089515,-0.139539338,-0.09077682225,0.099028014115,-0.5373054575,-53.8566581,39.4293203,-121.1270925,8.637824756495977,0.5691287119433844,138.30034029981024,18.76156944444437,28.774013888889137
48400,48400.0,1.2163040500000002,-8.2140565,-2.05705337,0.291913606,-0.54886093,-0.38114548299999995,-55.0541688,39.04747020000001,-120.85998500000001,8.560009090084003,0.734339655558937,138.4299170087706,18.71547222222215,28.76169444444469
48500,48500.0,2.535031905,-7.9911588500000015,-2.5256606500000003,-0.13440017399999998,0.06254272599999999,-0.1163185115,-55.723723,38.29429525,-119.96902450000002,8.761984756249275,0.2147424632127426,137.7104157116834,18.669374999999928,28.74937500000025
48600,48600.0,3.416210185,-8.6173614,-2.559300235,0.4732322675,-0.57736129,0.160494234,-55.304337,38.45733600000001,-119.9298105,9.625103192539433,0.7655298306709348,137.55266243774142,18.623277777777698,28.737055555555813
48700,48700.0,3.17008967,-8.860078300000003,-4.128521715,0.29553680800000004,-0.17368698149999998,-0.156370543,-55.22995,38.5823054,-121.4257044,10.278007924811911,0.3815252075091816,138.86437938318446,18.57718055555548,28.72473611111136
48800,48800.0,1.6875546210526315,-12.060510789473685,-2.8134436421052635,0.5326594368421053,-0.39015760200000005,0.6244346105263158,-54.50904825,39.291610600000006,-123.38615225,12.581033493983936,0.9428645179435429,140.49668513204972,18.531083333333253,28.712416666666922
48900,48900.0,-0.3211364780000001,-7.97218936,1.89936524,0.26725464,0.76524658,-0.009582519399999991,-53.97689825,39.70504755,-125.48446750000001,8.238209813948355,0.8234681083424646,142.25458291414054,18.484986111111034,28.700097222222475
49000,49000.0,2.49731748,-10.171981599999999,0.062774658,0.40446472200000005,0.6129119759999999,0.17747803,-52.86056555,40.552674,-128.1529235,10.477792932029033,0.7611790715651278,144.43684456101641,18.43888888888881,28.68777777777803
49100,49100.0,3.0436737000000003,-10.2684632,0.9943573040000001,0.480520636,-0.223959346,0.286563112,-52.188109999999995,40.844727,-129.81415,10.763546735100427,0.6124509107367924,145.75185792743474,18.39279166666659,28.675458333333587
49200,49200.0,1.53413088,-9.4731078,0.261968994,0.402114872,0.211099244,-0.019165038380000003,-51.981506,40.321655,-131.78680599999998,9.603290436298149,0.4593832606302749,147.29453192470717,18.346694444444367,28.663138888889147
49300,49300.0,1.98304136,-9.3560366,1.09826358,0.19226074199999998,0.3700317360000001,0.0690338132,-51.485901,40.252990999999994,-134.033204,9.626771289361095,0.4238536935773676,149.1174364066474,18.300597222222144,28.6508194444447
49400,49400.0,2.03595582,-9.63616,0.516226204,0.219534304,0.247525024,0.15319518599999998,-50.753173600000004,40.444948,-135.526428,9.862891232657196,0.3650320489236343,150.26347799385846,18.254499999999922,28.638500000000253
49500,49500.0,2.384613065,-9.3765636,1.104845405,0.1128509525,0.1774818435,0.1521835325,-49.783325399999995,40.2737436,-136.73126399999998,9.738428251646091,0.2596586675470427,150.98281703409015,18.2084027777777,28.626180555555813
49600,49600.0,1.70489809,-9.81470395,0.7918708795,0.082107544,0.312405394,0.204010775,-48.969116799999995,40.499572799999996,-137.526854,9.993703349898214,0.3821008711372445,151.49868036986214,18.16230555555548,28.61386111111137
49700,49700.0,2.8802703999999997,-9.663393699999999,1.249275945,-0.03373031645,0.4311233475,0.280282594,-47.516174,40.95214840000001,-139.112246,10.160737913634897,0.5153999252532421,152.60118935725362,18.116208333333255,28.60154166666693
49800,49800.0,2.8252014,-10.83828225,0.7505638225,-0.19032974100000002,-0.027738951,0.07473831155,-46.2298584,41.079407,-139.505002,11.22645173144269,0.2297667912044099,152.59872729439033,18.070111111111032,28.58922222222248
49900,49900.0,2.245389575,-9.92448495,-1.67661289,-1.36606368,-0.5268684505,-0.469930277,-46.955566999999995,41.4486696,-136.36566399999998,10.31347381452667,1.5389994398338025,150.06182999878166,18.02401388888881,28.576902777778038
50000,50000.0,0.08844909550000002,-11.6747016,0.38431320049999995,-1.674716205,-0.3289459175,-0.6462905904999999,-48.812562,41.827392200000006,-129.396362,11.689728474453355,1.827739449828636,144.48517895538657,17.977916666666587,28.56458333333359
50100,50100.0,1.33708494,-8.718460199999999,-0.7410751339999999,-0.5086792099999999,-0.253680417,-0.43920592799999997,-50.3277586,40.871888399999996,-125.628968,8.860235422365443,0.7252910817483398,141.37231978744992,17.931819444444365,28.55226388888915
50200,50200.0,0.978074648,-8.09033505,-1.59856568,0.36877441299999997,-0.5435424999999999,-0.224865727,-51.1389168,40.53192,-124.5755,8.306466918752713,0.6973076407370001,140.63101572368436,17.88572222222214,28.53994444444471
50300,50300.0,2.91917116,-9.189634800000002,-3.03185579,0.013294982700000001,-0.563995366,-0.445161436,-51.7932128,39.6600344,-123.70666200000001,10.108060630835821,0.7350450432181262,139.8530940320233,17.83962499999992,28.527625000000267
50400,50400.0,2.05199891,-8.5585247,-2.09859164,0.243180848,-0.08441314600000005,0.024938964499999997,-52.46521,39.481505799999994,-125.2777104,9.051470078347306,0.3151554459477183,141.44227727911402,17.793527777777694,28.51530555555582
50500,50500.0,4.20701448,-8.492926400000002,-2.57839204,0.459541331,-0.166859438,-0.041000366299999993,-51.92413320000001,39.520264000000005,-126.123962,9.824758594533948,0.4925855953963244,142.00433016381658,17.74743055555548,28.502986111111372
50600,50600.0,0.91750336,-9.897242599999998,-2.04712521,0.7976486309999999,0.0025146485000000045,0.37604524,-51.3275144,39.5233152,-127.67303600000001,10.148860353264556,0.8842149016136499,143.1679507228084,17.701333333333253,28.49066666666693
50700,50700.0,2.0500839,-9.156839300000001,-0.49747162799999994,-0.012060546999999994,0.507347124,-0.108326723,-50.650634000000004,39.7128292,-128.654786,9.514082792669011,0.5203646946872568,143.85646854516125,17.65523611111103,28.47834722222249
50800,50800.0,1.9245651000000001,-8.790228975,-0.3330528205,0.546726994,0.183451847,0.3639564525,-49.5101924,39.9792482,-130.41778200000002,9.014947196051882,0.6836756463717224,145.11531320642447,17.60913888888881,28.46602777777805
50900,50900.0,0.4266959752631579,-9.152310842105264,0.7479946747368421,0.37618537,-0.09882796455789472,0.13071401263157895,-48.5427093,40.27618415,-132.5109875,9.19824199070403,0.4161456543592184,146.75742506825287,17.563041666666585,28.4537083333336
51000,51000.0,2.4532639400000003,-9.7649641,0.42190399,0.469976804,0.0970016477,-0.0984222401,-48.5365298,39.78446885,-133.799515,10.081068897356584,0.4915150235536806,147.78709030233347,17.516944444444366,28.44138888888916
51100,51100.0,1.6847274799999998,-9.5467288,0.014527894000000012,0.132608032,0.395388791,-0.036633301,-48.50761335,39.3312075,-135.1696,9.695583948164703,0.4228919702416495,148.89847844315986,17.47084722222214,28.429069444444714
51200,51200.0,2.08946229,-9.7460494,0.38993835299999996,0.17298278399999997,0.27415466,0.12912292150000002,-47.7003465,39.4075783,-136.455916,9.975492457298063,0.3490873961707798,149.82853721022357,17.424749999999918,28.41675000000027
51300,51300.0,2.34875028,-9.5189525,0.65785064,0.196736142,0.262010189,0.21870880399999998,-46.5821078,39.62974565,-137.8264615,9.826579820658107,0.3940732369448024,150.78688628320842,17.378652777777695,28.40443055555583
51400,51400.0,2.1058625,-9.6155655,0.63762053,0.182351685,0.321023558,0.238520815,-45.309906,39.853744,-138.826291,9.864527167274268,0.4410980673628797,151.37398815079143,17.332555555555473,28.392111111111387
51500,51500.0,2.19708555,-9.2858823,1.19390873,-0.003430175780000003,0.6017226999999999,0.173754882,-43.957061700000004,39.8491669,-139.6485155,9.61726140547593,0.6264114726120182,151.73001300911903,17.28645833333325,28.379791666666943
51600,51600.0,2.962028525,-10.22920225,1.8526115,-0.055301666750000006,0.3642807025,0.13960647250000002,-42.2865294,40.341262799999996,-140.7871235,10.810178492144717,0.39455289942159416,152.4356094507937,17.240361111111028,28.367472222222496
51700,51700.0,1.5870422,-10.6556118,-0.8067993259999999,-0.37979126,-0.081851198,-0.03642273,-41.94793715,40.42182885,-140.304565,10.81012439703531,0.3906446723177873,151.91770031704442,17.194263888888806,28.35515277777805
51800,51800.0,1.32966004,-9.6928956,-1.1791046,-1.54049684,-0.499014284,-0.541571044,-42.684708,41.71157845000001,-136.3645185,9.862416895722015,1.7087470708301635,148.8539568240553,17.148166666666587,28.342833333333612
51900,51900.0,0.6161323315,-11.34483405,-0.39907379299999995,-1.44319149,-0.0061203004000000005,-0.4800491325,-44.51622,42.0840448,-130.2100365,11.370516267264046,1.5218836652033099,143.901088149342,17.102069444444357,28.330513888889165
52000,52000.0,1.640432735,-8.20376735,-0.390455624,-0.18878555449999998,-0.1889656065,-0.4509689355000001,-45.82099985,41.7103577,-127.4186715,8.376553583340144,0.5329121899244831,141.68581894718668,17.055972222222138,28.318194444444718
52100,52100.0,0.855917375,-8.374466100000001,-1.929088585,0.458103947,-0.397551737,-0.33112488300000004,-47.0948786,40.96908565,-127.17147849999999,8.639667085548446,0.6915062671019809,141.66523717810153,17.009874999999916,28.30587500000028
52200,52200.0,1.80503846,-8.6696179,-3.31460873,-0.1503265367,-0.272856143,-0.33831786399999997,-48.1515504,40.049744,-126.72828899999999,9.456118833385355,0.4646857716239252,141.35990066130483,16.963777777777693,28.293555555555834
52300,52300.0,2.4859467200000003,-8.3271319,-2.23375241,0.0931976298,-0.3119522035,0.1408386234,-48.34381085,39.987413,-126.3308695,8.974159166614847,0.3557615429002133,141.05191119455264,16.91768055555547,28.281236111111394
52400,52400.0,3.72541658,-8.4732973,-3.05328829,0.5309067,-0.113818361,0.043789673,-47.8691863,39.9220277,-127.1247095,9.747253354844656,0.5450647536507923,141.58369978333047,16.87158333333325,28.268916666666946
52500,52500.0,1.1581222749999998,-12.2120786,-2.7587981800000003,0.700819385,0.18105774100000002,0.46478576200000005,-47.2020721,40.46722425,-129.37416499999998,12.574458113012373,0.8621287722971308,143.53855995335957,16.825486111111026,28.256597222222506
52600,52600.0,-0.05615233999999991,-7.890721835,2.391077455,0.2203315772,0.62074053,-0.06886062899999999,-46.92207285,40.4026797,-130.01838999999998,8.261311605295418,0.663433214058941,144.0100839118712,16.779388888888803,28.24427777777806
52700,52700.0,2.88326799,-9.93022355,-0.3578300485,0.549017325,0.3602859455,0.20815735,-45.903853999999995,40.3866581,-132.10708449999998,10.346795105434293,0.6918659854886887,145.56978109074342,16.73329166666658,28.231958333333612
52800,52800.0,2.23736266,-10.0650162,1.373780805,0.441002655,-0.2667358375,0.20560455649999998,-45.70763,40.34721733333333,-133.18110952380954,10.404494075724092,0.5549310309537016,146.47284827304526,16.68719444444436,28.21963888888917
52900,52900.0,1.81473538,-9.7909389,0.6972915365000001,0.421886441,0.075700375,-0.06800460900000001,-45.815278000000006,39.929963,-135.00976500000002,9.982881278338217,0.4349813599892506,148.05782381674197,16.641097222222136,28.20731944444473
53000,53000.0,1.57548824,-9.4986155,0.8027000384999999,0.1364410435,0.312460315,-0.016822815249999998,-45.523834,39.269257,-135.96039,9.662224014903456,0.3415805854040469,148.6598984528506,16.594999999999914,28.195000000000285
53100,53100.0,1.68748397,-9.668173225,0.366719056,0.2491485635,0.260360716,0.16757354800000002,-45.0431825,39.4607545,-137.09488000000002,9.821491628382482,0.3974602045481904,149.60311202213532,16.548902777777688,28.18268055555584
53200,53200.0,2.3359528,-9.363693,0.7551727,0.18225098,0.30355835,0.30552673,-43.7805175,39.5057675,-138.33008,9.68017086052215,0.467664061383998,150.37509899495763,16.50280555555547,28.170361111111397
53300,53300.0,2.0845642,-9.597137,0.8868560999999999,0.09915161,0.30781555,0.20433044,-42.66281100000001,39.5500185,-139.082335,9.860880297559536,0.3825341596485054,150.75881157613432,16.456708333333243,28.15804166666695
53400,53400.0,2.9009857000000006,-9.283493,1.3704834,-0.035064697,0.6220703000000001,0.18301392,-41.4474485,39.594268,-139.997865,9.822280033797094,0.6493805402316566,151.27800421466125,16.410611111111027,28.14572222222251
53500,53500.0,2.7980347,-10.916336,1.4399108999999999,0.018203735,-0.099105835,0.11804199,-40.422822,39.730835,-140.11154,11.360842101148968,0.1552006891162457,151.14161747564287,16.3645138888888,28.133402777778066
53600,53600.0,1.0694122,-10.405167,-1.0273132,-0.6571808000000001,-0.32174683,-0.17810059,-40.90347250000001,39.72702,-138.66119,10.510305188827397,0.7530786457349836,149.92780763279526,16.31841666666658,28.121083333333626
53700,53700.0,-0.83636475,-10.26033,-0.43473816,-1.7437439,-0.56463623,-0.4998169,-42.5354005,40.37628100000001,-133.204655,10.30353701268175,1.8998088836884182,145.5446814597125,16.272319444444356,28.10876388888918
53800,53800.0,1.2471848,-10.2172263,-0.521533939,-1.38204114,0.0394775381,-0.27812806100000004,-43.62716500000001,40.547180499999996,-127.59323,10.30751106346192,1.4103050980855083,140.80997212328703,16.226222222222134,28.09644444444473
53900,53900.0,1.89594728,-7.722947705,-0.635553755,-0.0077468873499999995,-0.5345848035,-0.33426970699999997,-44.5426935,40.2130135,-125.72403,7.979545399952741,0.6312753486628894,139.3114786505407,16.180124999999908,28.08412500000029
54000,54000.0,1.85836488,-9.158213,-2.752384235,0.3416175835,-0.5230400070000001,-0.4460220385,-45.5596915,39.459228499999995,-125.1983625,9.742992849618886,0.7677154875951835,138.95107204748746,16.13402777777769,28.071805555555855
54100,54100.0,1.12239382,-8.23974145,-2.48644789,0.1679702795,0.29578170800000003,-0.2478820815,-46.7788695,38.569641,-125.85906999999999,8.680554004995006,0.421435864673396,139.7012528296348,16.087930555555467,28.059486111111408
54200,54200.0,3.16787643,-8.72563995,-3.0761512000000004,0.3485435455,-0.358026119,-0.02822723375,-47.11914,38.051605,-126.07574450000001,9.779321574700237,0.5007943050122585,139.86894093159793,16.041833333333244,28.04716666666696
54300,54300.0,2.48342818,-8.576002749999999,-2.051123005,0.420386517,-0.10166320805,-0.031043243999999998,-47.169495,37.864684999999994,-126.548767,9.166140246725064,0.43616466860026587,140.26162264947385,15.995736111111023,28.03484722222252
54400,54400.0,3.92701876,-12.1201427,-4.7809432,0.16786957100000002,-0.4854873696,0.1066421536,-46.691895,37.9173285,-128.39889499999998,13.609598487656429,0.5307616691182315,141.7890783529129,15.949638888888801,28.022527777778073
54500,54500.0,-0.014199827999999998,-8.3052217,0.249757384,0.43460693200000006,0.0428833007,0.381581113,-46.408081,37.969207,-129.92325,8.325596168343791,0.5813310340087903,143.09260883155147,15.903541666666575,28.01020833333363
54600,54600.0,0.6699478179999999,-9.6803327,0.310926827,0.49724578,0.308346554,-0.04259948707,-45.7004543,38.142778,-131.4312725,9.71267134854208,0.5920900708537924,144.28332593933084,15.857444444444356,27.997888888889182
54700,54700.0,2.94431302,-10.4752071,0.773246763,0.509600831,-0.045098877,0.0474136349,-45.5536655,37.64122015,-132.771834,10.911562101532743,0.5238086352325109,145.32852698319402,15.811347222222132,27.985569444444746
54800,54800.0,1.94054874,-9.4968075,0.242332462,0.20270691,0.406147769,-0.11610412699999999,-45.5921169,37.0793915,-134.145815,9.697060908535272,0.4694980856159838,146.45348434678115,15.76524999999991,27.973250000000302
54900,54900.0,1.8087463,-9.5727141,0.84328461,0.146994019,0.267980957,0.0935394285,-45.40489215,36.9045261,-135.64643600000002,9.778808293968297,0.3201105727362937,147.7279887683466,15.719152777777689,27.960930555555855
55000,55000.0,2.09125668,-9.5320087,0.592733783,0.16563263,0.267652891,0.215510556,-44.620514,37.13615375,-136.5283235,9.777390613224727,0.3817386011509666,148.3581063169521,15.673055555555464,27.94861111111141
55100,55100.0,2.38107756,-9.6574674,0.702140786,0.196839902,0.226652524,0.183442687,-43.75747725,37.21977235,-137.514265,9.971711659848586,0.3521227179716205,149.03102865551003,15.626958333333242,27.93629166666697
55200,55200.0,2.11531685,-9.4166091,0.501629636,0.097665404,0.428091429,0.192501832,-42.86361705,37.2370151,-138.32260250000002,9.66443636600811,0.4795952596982408,149.52294351474282,15.580861111111018,27.923972222222524
55300,55300.0,2.41543586,-9.6043121,1.51688694,0.0365173336,0.511599734,0.228300472,-41.2727347,37.36877415,-139.210585,10.019225868992642,0.5614273353121741,149.93152819117012,15.534763888888795,27.911652777778077
55400,55400.0,1.47881773,-10.7066088,1.6488052,0.08679962000000001,0.0772979704,0.146902465,-40.36605885,37.5047297,-140.17455800000002,10.935881193929912,0.18764327750805568,150.61519751909628,15.488666666666575,27.89933333333364
55500,55500.0,1.55291899,-9.797639199999999,-0.07322235199999999,-0.455519105,0.225683594,0.0569000263,-39.7676853,38.0029297,-139.11163100000002,9.921331129203297,0.5130644608069778,149.59192286394918,15.44256944444435,27.887013888889193
55600,55600.0,2.72404483,-10.13617975,-0.87372589,-1.35013886,-0.497308355,-0.57235564,-40.5138393,39.0557099,-136.2259655,10.53992889283241,1.5492435659918735,147.3917904129799,15.39647222222213,27.874694444444753
55700,55700.0,-0.5624763530000001,-11.69343475,-0.779753861,-1.474232525,-0.053245545000000005,-0.5937637275,-42.982330499999996,39.752196999999995,-130.832826,11.737374930959373,1.599204698159005,143.33547992878113,15.350374999999907,27.862375000000306
55800,55800.0,2.0945587000000003,-8.9054444,-0.012289429499999999,-0.37056732600000003,-0.08356399490000001,-0.7612236090000001,-44.893646999999994,39.469147,-128.2486,9.156367468265287,0.8549880761776878,141.49571734742486,15.304277777777687,27.850055555555862
55900,55900.0,0.271910098,-7.308930985,-1.77824555,0.1004890426,-0.41752319600000004,-0.3330444395,-46.783446999999995,38.478088,-126.65405,7.52718710579106,0.5437093519135304,140.39437873641734,15.258180555555462,27.837736111111422
56000,56000.0,3.170982315,-8.970989900000001,-2.81739651,0.01111145,-0.495870971,0.1232582094,-47.06163815789475,38.528844210526316,-125.77787894736844,9.924554786027581,0.511373304208105,139.7118693522763,15.21208333333324,27.82541666666697
56100,56100.0,3.30608218,-7.9606905,-2.81792908,0.27131043,-0.227365108,0.10888366599999999,-46.7752552631579,38.89577684210526,-125.79506263157894,9.069522081420837,0.3708690041003007,139.73274729166133,15.165986111111016,27.813097222222535
56200,56200.0,2.0141693,-8.3143128,-3.1840088,0.5214233199999999,-0.188589476,0.110586548,-46.6783907,39.238814899999994,-126.363372,9.153924003743393,0.5936948957658738,140.3077824056335,15.119888888888795,27.80077777777809
56300,56300.0,3.33744506,-13.489626800000002,-5.97492064,0.06677856400000001,-0.45000609,0.318521128,-45.4278573,40.14533965,-128.55057349999998,15.168837923841007,0.5845771000708544,142.12884849359924,15.073791666666573,27.788458333333644
56400,56400.0,-0.78369446,-8.765390400000001,1.511978186,0.50906982,0.6838592520000001,0.311920164,-44.85946660000001,40.1296238,-130.05104200000002,8.979408548059798,0.9247739995099106,143.3041249877929,15.027694444444348,27.7761388888892
56500,56500.0,1.4558380240000002,-10.034067,-0.46442566,0.5384796199999999,0.07495117200000001,0.031747436600000005,-43.77006525,40.66955525,-132.7041645,10.169952720474337,0.5466569366463633,145.53432622164866,14.981597222222128,27.76381944444476
56600,56600.0,2.77958982,-10.2335144,0.92899474,0.51035157,-0.053097534799999985,0.0349456784,-43.75595135,40.4531859,-133.88733,10.64493473754813,0.5232280491662041,146.54997942635603,14.935499999999905,27.751500000000316
56700,56700.0,0.7572112999999999,-9.4065492,0.6694671839999999,0.244036864,0.363214112,-0.1388977024,-44.1078942,40.10452225,-135.073318,9.461559692053418,0.4604767899535261,147.64377779894025,14.889402777777686,27.739180555555873
56800,56800.0,1.94401248,-9.5147674,0.8698547320000001,0.25106506,0.216842648,0.1289093,-43.6590565,40.07278435,-136.098405,9.751414054219037,0.35636524760331745,148.44104995031176,14.84330555555546,27.726861111111425
56900,56900.0,2.15254828,-9.411578599999999,0.5071349940000001,0.278121952,0.14845581000000002,0.136791994,-43.445283,39.6801745,-137.372131,9.668023493607166,0.34415941925206595,149.44274572841215,14.797208333333238,27.714541666666978
57000,57000.0,2.3352295400000003,-9.298093,1.22203976,0.107254029,0.122894288,0.207946778,-42.4547577,40.0224302,-137.9920975,9.664460305323786,0.26462862485393585,149.82000855040516,14.751111111111017,27.702222222222534
57100,57100.0,1.7074738,-9.7941712,0.58614502,0.11023865,0.38408508399999997,0.135083006,-41.81816025,39.9790192,-138.7191015,9.959168301260316,0.4222932759252067,150.3000310261072,14.705013888888793,27.68990277777809
57200,57200.0,3.2945289250000003,-9.604313000000001,2.042652125,-0.085128784,0.3307266125,0.170764925,-40.5229186,40.7314297,-139.27009800000002,10.357357959618128,0.3824344426566881,150.65630035121868,14.65891666666657,27.67758333333365
57300,57300.0,1.79336165,-10.56109975,-0.02683638499999999,-0.0561065665,-0.334270485,0.05918121375,-40.6369018,40.72113,-138.93158200000002,10.719238009574577,0.349689376918674,150.37141114119913,14.612819444444348,27.665263888889214
57400,57400.0,2.70943835,-10.23757925,-0.970745095,-1.068634075,-0.45464325,-0.344814305,-41.5252684,41.3964846,-136.36779800000002,10.635699684304377,1.2121232655531489,148.44001398484002,14.566722222222126,27.652944444444767
57500,57500.0,-1.52949525,-11.890769875,-0.2270507825,-1.798873875,-0.8898010375,-0.7275161725,-44.586486799999996,41.5136722,-128.527528,11.991247871171018,2.1386107636155223,142.23601236533338,14.520624999999905,27.64062500000032
57600,57600.0,2.362888375,-9.31880575,-0.1788597075,-0.8004531850000001,-0.13079834199999998,-0.5517501625,-46.412047799999996,40.578614,-124.52758600000001,9.624247776630538,0.9918336906234188,138.95267398502122,14.474527777777679,27.628305555555876
57700,57700.0,0.501091,-6.65585325,-1.022815675,0.11460876375,-0.7007141,-0.4380226125,-48.115234,39.256896999999995,-123.106994,6.75357562835153,0.8369695492910751,137.88257470948778,14.428430555555458,27.615986111111432
57800,57800.0,2.669040675,-9.656391125,-4.0362282,0.21846390100000002,-0.608306875,0.014980315749999999,-48.367309999999996,39.1629028,-122.8744524,10.8064814577473,0.6487081195896038,137.73635765044088,14.382333333333234,27.60366666666699
57900,57900.0,3.14590914,-7.45539859,-1.96404116,0.184706117,0.07218170499999997,0.017477415900000008,-48.5809326,39.049682399999995,-122.800902,8.328187773043926,0.2535780084734972,137.71380232583857,14.336236111111011,27.59134722222255
58000,58000.0,2.9626312,-8.413430900000002,-4.21997988,0.72148895,-0.433601377,0.11345520199999999,-47.881775,38.95477279999999,-123.61725,9.87245358729204,0.8641974474248247,138.17197457733891,14.290138888888789,27.5790277777781
58100,58100.0,1.3129013079999998,-14.439407199999998,-3.4231842,0.5929076999999999,-0.04819640999999997,0.504193108,-46.828307200000005,39.6047972,-126.47125359999998,15.037453297508524,0.9846221290317814,140.55762793514108,14.244041666666567,27.566708333333654
58200,58200.0,-1.83439483,-7.0040892999999995,4.71901548,0.30358275999999995,0.8665466599999999,0.04293975935000001,-46.5630341,39.31884755,-127.4373645,8.672188082238701,0.9662750227000484,141.26003676344533,14.197944444444346,27.554388888889214
58300,58300.0,3.19534608,-11.1717972,-1.09841921,0.48605652,0.29088593100000004,0.216676328,-45.099198210526325,39.940603315789474,-129.83133631578949,11.702059158304985,0.6233201755842448,143.1273469361885,14.151847222222125,27.54206944444477
58400,58400.0,3.12926485,-10.1384596,1.33887632,0.35492402100000003,0.284381106,-0.007551576000000002,-44.7003174,39.47311305,-131.8106865,10.698784804947016,0.4583352791011854,144.67325042907953,14.1057499999999,27.52975000000033
58500,58500.0,0.7690643300000001,-9.079982199999998,0.612240594,0.30454253600000003,0.41435089,-0.08382568278,-44.90623405,38.82858285,-133.449481,9.135094740624933,0.5237143058473936,146.05818818814336,14.059652777777679,27.517430555555887
58600,58600.0,2.14357298,-9.419540199999998,0.737158215,0.26848526300000003,0.439115145,0.18685912899999998,-43.87634255,38.55201829999999,-135.5386385,9.689160691030644,0.5476363864590033,147.5877602264788,14.013555555555456,27.50511111111144
58700,58700.0,2.545138525,-9.35178995,0.7545738155,0.271572866,0.0840583785,0.2214759805,-42.810210999999995,38.7265009,-136.74743800000002,9.721323265277949,0.3603875015619801,148.43313953414554,13.967458333333235,27.492791666667
58800,58800.0,1.64689716,-9.5098634,0.6577880724999999,0.194870757,0.060414123,0.206349185,-42.100905,38.541564,-137.6177965,9.675738603472848,0.29409855142390456,148.9853911266264,13.921361111111011,27.480472222222552
58900,58900.0,1.754756935,-9.361835675,0.91037522,0.02506408664,0.4574363775,0.205126192,-40.74386625,38.9883435,-138.82439250000002,9.569184523574126,0.5025235949512271,149.84144278151194,13.875263888888789,27.468152777778112
59000,59000.0,2.93719028,-10.115894599999999,1.990224425,0.00030441283999999973,0.162246704,0.2816047665,-39.3708798,39.2294303,-138.46518999999998,10.720336959083827,0.3319442227029963,149.20329667368162,13.829166666666564,27.455833333333665
59100,59100.0,0.8393310645000001,-11.7422108,-1.253316486,-0.3911254925,-0.392163847,-0.215708924,-39.3381506,39.4469445,-138.4077475,11.85690046664566,0.6094653895019521,149.19871685033638,13.783069444444346,27.443513888889218
59200,59200.0,-0.11571045200000002,-9.6538756,-0.204180904,-1.73757324,-0.111254882,-0.41693726,-40.41900625,40.535507,-133.495178,9.658202137811418,1.790563282715636,145.25174303394675,13.736972222222118,27.431194444444774
59300,59300.0,0.288671884,-10.7736392,-0.6832672240000001,-1.23157654,-0.26124267840000004,-0.561172486,-42.37281820000001,40.93574535,-128.15879650000002,10.803011058092618,1.3834466242434091,141.05308489467473,13.6908749999999,27.41887500000033
59400,59400.0,1.4259093999999999,-7.93794562,-0.61239624,-0.1513977068,-0.0070739748000000074,-0.51067505,-43.75984175,39.9943546,-126.58843909999999,8.088483110440508,0.5459414645834769,139.78244262529006,13.644777777777676,27.406555555555894
59500,59500.0,1.0057311979999999,-8.7881258,-2.12648012,0.190774534,-0.695025638,-0.349819946,-45.21964995,39.6546942,-126.0664365,9.106834312834458,0.8013018668079518,139.67855160749795,13.598680555555456,27.39423611111145
59600,59600.0,2.19852294,-8.3473542,-2.6407592999999996,0.256600954,0.1007324216,-0.34790954,-46.2571718,38.87184105,-126.3916015,9.029409506247843,0.4449211964918964,140.09153784605178,13.552583333333233,27.381916666667003
59700,59700.0,3.47582398,-7.8898284,-2.36423028,0.163504026,-0.25378722800000003,0.0532714846,-46.48849555,38.5559855,-126.2744889,8.941460923080347,0.3067090846618518,139.97498730383214,13.506486111111007,27.369597222222556
59800,59800.0,1.9406594315789476,-8.60227847368421,-1.8461287578947367,0.6319596105263158,-0.02163053884210526,0.08445819989473684,-46.49787905,38.5590355,-127.007828,9.077905769638699,0.6429520432202394,140.64091828830482,13.460388888888788,27.35727777777812
59900,59900.0,4.5875214249999985,-12.5984393,-5.620406405,0.03827819550000002,-0.2489433275,-0.03983459749999999,-45.85350089999999,38.97140525,-129.22126799999998,14.606735023637805,0.536382621487679,142.546364051067,13.414291666666564,27.344958333333672
60000,60000.0,0.9578437975,-7.77579505,-0.24644241450000004,0.5754928619999999,0.046620178999999984,0.3416877815,-45.330352600000005,38.5624697,-130.367891,7.89714785358297,0.6822572842201309,143.3100403193057,13.368194444444342,27.33263888888923
60100,60100.0,0.2147460935,-9.48885875,-0.159049993,0.42251740299999996,0.4318702695,0.1419021615,-44.3772886,38.73687690000001,-132.569271,9.51319305782898,0.6229686221753157,145.06726245624355,13.32209722222212,27.320319444444785
60200,60200.0,2.6930457999999997,-10.045921400000001,1.79204484,0.6873451235,0.14466857675,0.2444335925,-43.3148191,38.66378810000001,-134.641574,10.563832370103762,0.7491319790546762,146.62696774051207,13.275999999999895,27.308000000000337
60300,60300.0,1.493251795,-9.47675735,0.4967178345,0.17239455899999998,0.5246551505,-0.08580093324999999,-43.057708700000006,38.166351899999995,-136.216739,9.615240249814912,0.5639901807048036,147.87040969688528,13.229902777777676,27.295680555555897
60400,60400.0,2.1736442000000005,-9.173354842105264,1.3719305684210528,0.0780727994736842,0.4169857647368421,0.013585140894736844,-42.3770141,37.9393012,-137.12554599999999,9.527433430877872,0.4260885734878204,148.4541609826257,13.183805555555454,27.28336111111145
60500,60500.0,1.9875946,-9.5713885,0.5277252299999999,0.077316285,0.302490235,0.14573669,-41.6706848,37.9580696,-138.072054,9.793388204289213,0.34616085135856234,149.13489177041197,13.13770833333323,27.271041666667013
60600,60600.0,2.22821045,-9.369087,1.53448485,-0.0393218995,0.280654905,0.13188934200000002,-40.9603885,38.040772100000005,-138.590246,9.752200878952939,0.3127530308156896,149.43934327757185,13.091611111111007,27.25872222222257
60700,60700.0,2.06240845,-8.881264000000002,0.8012619000000001,0.082115175,0.368003845,0.12336731,-39.8136899,38.2652286,-139.33074499999998,9.153507153268428,0.3969186981393852,149.874780839545,13.045513888888786,27.246402777778126
60800,60800.0,2.91594695,-10.2890545,1.0400847999999998,0.050155639,0.156555175,0.21710968,-38.5871886,38.2795713,-139.94171,10.744941899432542,0.2826104401881153,150.12654651280062,12.999416666666562,27.23408333333368
60900,60900.0,2.66275025,-11.960205,-0.17676544999999988,-0.24918366,-0.756912225,-0.07477569349999999,-38.8874816,38.505707,-139.363708,12.291989216271286,0.8045328052180689,149.72365791970606,12.95331944444434,27.221763888889235
61000,61000.0,-0.045677185000000016,-8.9459075,-0.8214111500000001,-1.5493393,-0.76649475,-0.32617187000000003,-40.1184092,39.3841554,-135.04089199999999,8.997225548637406,1.7593280846529922,146.27683430382814,12.907222222222115,27.20944444444479
61100,61100.0,0.93899155,-10.803087099999999,-0.588212587,-1.29202119,-0.162068938,-0.479946893,-41.244354,40.390167,-129.480133,10.861402710561762,1.3927061774606255,141.76591847281048,12.861124999999895,27.19712500000035
61200,61200.0,1.737274205,-8.9281296,-0.929985815,-0.415419004,-0.216341405,-0.51408461,-42.8713982,40.5311592,-126.9946308,9.143089828951037,0.7018949931050632,140.0300927100102,12.815027777777672,27.184805555555908
61300,61300.0,0.6889724850000001,-7.98679032,-1.298990655,0.06155624275,-0.423748776,-0.37863311549999995,-44.39498820000001,39.816284,-126.03943000000001,8.121651437116533,0.5721587356551417,139.43549130119945,12.768930555555448,27.17248611111146
61400,61400.0,2.651570125,-8.487903450000001,-2.80781167,0.1337806695,-0.288996124,-0.1246238703,-44.830476,39.5703123,-125.6056212,9.326938368929587,0.34300698297972204,139.11290299607685,12.722833333333227,27.160166666667017
61500,61500.0,2.83795244,-8.80674655,-3.33807217,0.4345573485,-0.1255241385,0.0125213625,-45.0019848,39.5196531,-126.620177,9.840647265422538,0.4526440963696958,140.0702695663248,12.676736111111007,27.14784722222257
61600,61600.0,3.4226165999999996,-8.418344099999999,-2.979658475,0.186778258,-0.1064620956,-0.15275039699999998,-45.093841999999995,39.3054201,-127.489622,9.565884744170603,0.2691997987842385,140.8260570812174,12.630638888888784,27.13552777777813
61700,61700.0,0.9745452985,-10.32712045,-2.104759195,0.7204162525,0.1380195643,0.39702911350000003,-44.5732114,39.457855,-128.433077,10.58792431525738,0.8371769897248083,141.55859236013256,12.58454166666656,27.123208333333693
61800,61800.0,2.1120941,-8.71678178,-0.992590328,-0.026550293,0.5498474139999999,0.073727417,-43.5672775,40.06233225,-130.415345,9.14047129609385,0.5637466476839492,143.21766796789356,12.538444444444337,27.110888888889235
61900,61900.0,2.95700376,-9.9138824,-0.81637878,0.501187124,0.47442322,0.425262452,-42.383575,40.465927,-132.17506500000002,10.38992009471464,0.8232881694015202,144.58269029310787,12.492347222222117,27.0985694444448
62000,62000.0,1.43022158,-9.7142058,0.96107484,0.4426025380000001,-0.08760375839999998,0.19622802600000003,-41.516875,40.46936075,-134.35364249999998,9.881657598747251,0.5021764480776649,146.32955419739494,12.446249999999893,27.08625000000036
62100,62100.0,1.64450682,-9.678292800000001,0.029016111999999983,0.482223512,0.1652893064,-0.17575988399999998,-41.1083225,39.9532315,-135.94894250000002,9.82088468053938,0.5430445177050317,147.5407648362627,12.40015277777767,27.07393055555591
62200,62200.0,1.53484498,-9.273196,0.91175842,0.1242950416,0.31996765,0.158309938,-40.9454345,40.00587425000001,-137.2310675,9.448031658034186,0.3799579821764497,148.6922342349575,12.354055555555446,27.061611111111468
62300,62300.0,2.13507692,-9.7769378,0.09867858800000001,0.254043578,0.30803222199999997,0.17960815200000002,-39.85290425,40.02647425,-138.18244750000002,10.009014813971094,0.4393868575622956,149.28082731391572,12.307958333333225,27.049291666667024
62400,62400.0,2.48864362,-9.24889385,0.82622605,0.08083572275,0.24565811350000002,0.109410095,-38.8339995,39.954376,-139.3672975,9.613800897969105,0.2808195347585075,150.09225364494122,12.261861111111006,27.036972222222577
62500,62500.0,2.295542935,-9.0613082,1.106758895,0.0414230349,0.247629545,0.1422759965,-37.95967075,40.58952275,-139.6068575,9.413154927008904,0.2887905007782673,150.26168775952766,12.215763888888779,27.024652777778133
62600,62600.0,2.50503925,-9.655430475,1.00285797,0.064160156,0.374025723,0.2427841205,-36.69929525000001,40.871429,-140.84778,10.025757346779967,0.4508600680349689,151.18015589460248,12.169666666666558,27.012333333333693
62700,62700.0,2.681369005,-10.96338455,1.586738605,-0.0018264771100000013,-0.2011688255,0.243315123,-35.4068755,41.26587,-140.7764425,11.399691357812324,0.3243108884567425,150.9123586857511,12.123569444444337,27.00001388888925
62800,62800.0,1.785997755,-10.42127635,-2.008576945,-0.8316696175,-0.1872627275,-0.232112886,-35.86845250000001,42.2332765,-139.30893,10.764687730345905,0.8902580023223434,149.9240437674359,12.077472222222113,26.98769444444481
62900,62900.0,0.14262008770000004,-10.22860475,0.1997802765,-1.76409915,-0.684524525,-0.6874633895000001,-38.18779,44.39620975,-132.66944999999998,10.23626389009005,2.0135744798873607,145.01980404382192,12.03137499999989,26.97537500000036
63000,63000.0,1.1914560442105264,-10.739352684210527,-0.8044618215789474,-0.9340876421052632,-0.03777112442105263,-0.5665395684210526,-40.603638000000004,45.26329175,-127.3937225,10.838567305743327,1.0936063066181039,141.1620257690389,11.985277777777666,26.963055555555922
63100,63100.0,1.3840118300000002,-7.94692708,-1.16844942,0.0453613278,-0.583920291,-0.39605255,-42.98439025,44.939040999999996,-125.79917875,8.154485334635346,0.7127600908295997,140.33047600135072,11.939180555555446,26.95073611111148
63200,63200.0,0.99029239,-8.634187599999999,-2.51984859,0.22113037600000002,-0.43445282,-0.160096744,-43.788146999999995,44.564820000000005,-125.686646,9.057161268331734,0.5151390228238975,140.3586761908765,11.893083333333225,26.93841666666703
63300,63300.0,3.02631686,-8.8029741,-2.24763798,0.099267576,0.088586426,-0.167456052,-44.5438375,44.4747925,-125.66185,9.576775042891498,0.21484180108292253,140.54567917893098,11.846986111110999,26.92609722222259
63400,63400.0,3.64773407,-8.7018221,-3.5057861700000004,0.18522796800000002,-0.57112884,-0.21134186,-45.30143775000001,44.4553375,-125.7576,10.067047115365042,0.6367551026088609,140.86686853704703,11.800888888888776,26.913777777778144
63500,63500.0,1.72434694,-7.71457072,-2.26511231,0.481694026,-0.270191952,0.0775634765,-45.689392,44.48013375,-125.3887175,8.223929984690459,0.5635056422190985,140.67116066498372,11.754791666666556,26.901458333333697
63600,63600.0,1.7658889799999995,-11.84863585,-3.76555646,0.6427581720000001,0.35107269,0.55331266,-44.06850736842105,45.52170563157895,-128.74659105263157,12.571133347418545,0.9192096969095971,143.49228113594626,11.708694444444331,26.889138888889256
63700,63700.0,1.0562515,-8.165393625,2.2162361175,-0.07554245025,0.7773284975,-0.011119842500000005,-43.639526,45.715332000000004,-129.162288,8.591721873075983,0.7822685209489241,143.7957012733572,11.662597222222109,26.87681944444481
63800,63800.0,2.197982775,-10.23608025,0.1551284825,0.48318481,0.4806594875,0.3340225225,-42.52258320000001,45.966491600000005,-131.721496,10.47432000546193,0.7615333668874436,145.8480735820051,11.616499999999885,26.864500000000373
63900,63900.0,2.309612275,-10.3860165,0.6181030425,0.5883751,-0.037059782500000034,0.362518315,-41.7514026,45.706178,-133.780212,10.666019959639037,0.7049657980033441,147.40905476954038,11.570402777777664,26.852180555555925
64000,64000.0,2.14500805,-9.50585575,0.592964175,0.33538055749999995,0.2260627775,-0.140281675,-41.60858,45.619812,-136.04736799999998,9.766234287419882,0.43322892075876335,149.40324942996816,11.524305555555447,26.839861111111478
64100,64100.0,1.81132125,-9.608204,0.8084449725,0.1641387975,0.425258635,0.141742705,-41.319275,45.451355,-136.78589,9.811475563162514,0.4775307136493068,149.94494943463002,11.478208333333221,26.827541666667038
64200,64200.0,2.66574705,-9.2065218,0.911756892,0.156254579,0.30590210100000004,0.17321624800000002,-40.17700120000001,45.810547,-138.32793999999998,9.630153341344352,0.38610669289779537,151.1536472200321,11.432111111111,26.815222222222594
64300,64300.0,2.077543057142857,-9.562923142857144,1.0428226657142856,0.15348815714285713,0.092176165,0.15928214,-39.594726,45.546265000000005,-139.23279,9.842081579616977,0.2407016842570699,151.7497144496408,11.386013888888776,26.802902777778147
64400,64400.0,2.433815025,-9.692898,0.8985328750000001,-0.141860965,0.05934524550000001,-0.027103424,-39.1836544,45.82672,-138.836362,10.03620517474465,0.1584811891502821,151.36375047579486,11.339916666666555,26.79058333333371
64500,64500.0,2.18845828,-8.680154199999999,1.28980408,-0.16843261599999998,0.22685547,0.017901611399999996,-39.27887000000001,46.1260984,-137.947696,9.044888789469582,0.2869383541981273,150.66524685012618,11.293819444444333,26.778263888889263
64600,64600.0,3.167623421052632,-10.745971473684211,1.5492248684210526,0.02150525526315789,-0.13291449315789475,0.4700196947368421,-38.1680286,46.781006,-137.64496,11.30986192513398,0.4899918648367413,150.30445908434615,11.247722222222107,26.76594444444482
64700,64700.0,0.442851256,-10.0904554,-1.70223232,-0.452116394,-0.184870912,-0.02353363029999999,-37.913513,47.4389644,-136.99737199999998,10.245907518145577,0.499011575348624,149.85394057999167,11.201624999999886,26.753625000000376
64800,64800.0,1.5481729346621524,-9.06090586741214,-1.1294974943650755,-1.2331040273840654,-0.2588423821024564,-0.2930105348397641,-37.99316268407011,47.78731988113409,-134.22229232767702,9.261422304633042,1.2937571988709322,147.45432706060248,11.155527777777664,26.74130555555593
64900,64900.0,1.5479346048257117,-9.061087097444089,-1.1274795847994852,-1.2320883099737112,-0.25870162447734163,-0.2926386265233538,-37.981289584264886,47.786886217617685,-134.20499323789102,9.261501681978373,1.2930911350130556,147.43581804199516,11.10943055555544,26.72898611111149
65000,65000.0,1.5476962749892709,-9.061268327476036,-1.1254616752338946,-1.2310725925633572,-0.25856086685222684,-0.29226671820694355,-37.969416484459664,47.786452554101274,-134.18769414810492,9.2615810593237,1.2924250711551797,147.41730902338784,11.06333333333322,26.716666666667045
65100,65100.0,1.54745794515283,-9.061449557507986,-1.123443765668304,-1.230056875153003,-0.2584201092271121,-0.2918948098905333,-37.957543384654436,47.78601889058486,-134.17039505831886,9.261660436669027,1.2917590072973029,147.39880000478055,11.017236111110996,26.7043472222226
65200,65200.0,1.5472196153163893,-9.061630787539935,-1.1214258561027133,-1.2290411577426488,-0.2582793516019973,-0.29152290157412303,-37.94567028484922,47.78558522706845,-134.15309596853282,9.261739814014355,1.2910929434394267,147.38029098617324,10.971138888888774,26.692027777778158
65300,65300.0,1.5469812854799485,-9.061812017571883,-1.1194079465371227,-1.2280254403322948,-0.2581385939768826,-0.2911509932577127,-37.93379718504399,47.78515156355203,-134.13579687874676,9.261819191359683,1.2904268795815506,147.3617819675659,10.925041666666553,26.679708333333718
65400,65400.0,1.5467429556435075,-9.061993247603834,-1.1173900369715322,-1.2270097229219403,-0.2579978363517679,-0.29077908494130245,-37.92192408523877,47.784717900035616,-134.11849778896072,9.261898568705009,1.2897608157236742,147.3432729489586,10.878944444444327,26.66738888888927
65500,65500.0,1.546504625807067,-9.062174477635782,-1.1153721274059416,-1.2259940055115863,-0.2578570787266531,-0.2904071766248922,-37.91005098543354,47.78428423651921,-134.10119869917466,9.261977946050338,1.2890947518657978,147.32476393035128,10.832847222222107,26.655069444444827
65600,65600.0,1.546266295970626,-9.06235570766773,-1.1133542178403508,-1.2249782881012323,-0.2577163211015384,-0.2900352683084819,-37.89817788562832,47.783850573002795,-134.08389960938862,9.262057323395666,1.2884286880079214,147.30625491174396,10.786749999999882,26.642750000000387
65700,65700.0,1.5460279661341854,-9.06253693769968,-1.1113363082747605,-1.2239625706908779,-0.2575755634764236,-0.2896633599920717,-37.88630478582309,47.78341690948638,-134.06660051960256,9.262136700740994,1.2877626241500453,147.2877458931367,10.740652777777662,26.63043055555594
65800,65800.0,1.5457896362977446,-9.062718167731628,-1.10931839870917,-1.222946853280524,-0.25743480585130885,-0.2892914516756614,-37.874431686017864,47.78298324596997,-134.04930142981652,9.262216078086322,1.287096560292169,147.26923687452938,10.69455555555544,26.6181111111115
65900,65900.0,1.5455513064613038,-9.062899397763578,-1.1073004891435794,-1.22193113587017,-0.2572940482261941,-0.28891954335925113,-37.86255858621264,47.78254958245356,-134.03200234003046,9.262295455431651,1.2864304964342923,147.25072785592204,10.648458333333217,26.605791666667052
66000,66000.0,1.5453129766248632,-9.063080627795527,-1.1052825795779888,-1.220915418459816,-0.2571532906010793,-0.2885476350428408,-37.85068548640742,47.78211591893714,-134.01470325024442,9.262374832776977,1.2857644325764164,147.23221883731472,10.602361111110994,26.59347222222261
66100,66100.0,1.5450746467884222,-9.063261857827476,-1.1032646700123985,-1.2198997010494617,-0.2570125329759646,-0.2881757267264305,-37.838812386602186,47.781682255420726,-133.99740416045836,9.262454210122305,1.28509836871854,147.2137098187074,10.556263888888774,26.58115277777816
66200,66200.0,1.5448363169519814,-9.063443087859424,-1.1012467604468077,-1.2188839836391077,-0.2568717753508498,-0.2878038184100203,-37.82693928679697,47.781248591904316,-133.98010507067232,9.262533587467633,1.2844323048606636,147.1952008001001,10.510166666666551,26.568833333333718
66300,66300.0,1.5445979871155404,-9.063624317891374,-1.0992288508812171,-1.2178682662287534,-0.2567310177257351,-0.28743191009360997,-37.81506618699174,47.78081492838791,-133.96280598088626,9.262612964812961,1.2837662410027877,147.1766917814928,10.464069444444329,26.55651388888928
66400,66400.0,1.5443596572790996,-9.063805547923321,-1.0972109413156264,-1.2168525488183992,-0.2565902601006203,-0.28706000177719976,-37.80319308718652,47.7803812648715,-133.94550689110022,9.262692342158287,1.2831001771449109,147.15818276288547,10.417972222222105,26.544194444444837
66500,66500.0,1.5441213274426588,-9.063986777955273,-1.0951930317500358,-1.2158368314080452,-0.2564495024755056,-0.2866880934607895,-37.79131998738129,47.7799476013551,-133.92820780131416,9.262771719503617,1.2824341132870347,147.13967374427816,10.371874999999884,26.53187500000039
66600,66600.0,1.543882997606218,-9.06416800798722,-1.0931751221844452,-1.214821113997691,-0.25630874485039085,-0.28631618514437923,-37.77944688757607,47.77951393783867,-133.91090871152812,9.262851096848943,1.2817680494291583,147.12116472567087,10.32577777777766,26.51955555555595
66700,66700.0,1.5436446677697773,-9.064349238019169,-1.091157212618855,-1.213805396587337,-0.2561679872252761,-0.28594427682796897,-37.76757378777084,47.77908027432226,-133.89360962174206,9.262930474194274,1.2811019855712822,147.10265570706355,10.279680555555435,26.507236111111503
66800,66800.0,1.5434063379333365,-9.064530468051117,-1.089139303053264,-1.2127896791769828,-0.2560272296001613,-0.28557236851155865,-37.755700687965614,47.77864661080586,-133.87631053195602,9.2630098515396,1.2804359217134058,147.08414668845626,10.233583333333216,26.49491666666706
66900,66900.0,1.5431680080968957,-9.064711698083068,-1.0871213934876736,-1.2117739617666283,-0.2558864719750465,-0.2852004601951484,-37.74382758816039,47.77821294728944,-133.85901144216996,9.263089228884928,1.2797698578555294,147.0656376698489,10.187486111110992,26.482597222222616
67000,67000.0,1.5429296782604551,-9.064892928115015,-1.085103483922083,-1.2107582443562743,-0.2557457143499318,-0.2848285518787381,-37.73195448835517,47.77777928377303,-133.84171235238392,9.263168606230256,1.2791037939976533,147.0471286512416,10.14138888888877,26.470277777778172
67100,67100.0,1.542691348424014,-9.065074158146963,-1.0830855743564924,-1.2097425269459203,-0.2556049567248171,-0.28445664356232786,-37.720081388549936,47.77734562025662,-133.82441326259786,9.263247983575583,1.2784377301397771,147.0286196326343,10.095291666666547,26.457958333333732
67200,67200.0,1.542453018587573,-9.065255388178914,-1.081067664790902,-1.2087268095355663,-0.2554641990997023,-0.2840847352459176,-37.708208288744714,47.77691195674021,-133.80711417281182,9.263327360920911,1.2777716662819003,147.01011061402696,10.049194444444323,26.445638888889285
67300,67300.0,1.5422146887511323,-9.065436618210862,-1.079049755225311,-1.2077110921252119,-0.2553234414745876,-0.2837128269295073,-37.69633518893949,47.77647829322379,-133.78981508302576,9.26340673826624,1.2771056024240244,146.9916015954197,10.003097222222102,26.433319444444837
67400,67400.0,1.5419763589146918,-9.06561784824281,-1.0770318456597208,-1.206695374714858,-0.2551826838494728,-0.2833409186130971,-37.68446208913427,47.776044629707386,-133.77251599323972,9.263486115611569,1.276439538566148,146.97309257681238,9.95699999999988,26.4210000000004
67500,67500.0,1.5417380290782512,-9.065799078274761,-1.0750139360941302,-1.205679657304504,-0.2550419262243581,-0.28296901029668675,-37.67258898932905,47.77561096619097,-133.75521690345366,9.263565492956896,1.2757734747082716,146.95458355820506,9.910902777777656,26.408680555555954
67600,67600.0,1.5414996992418102,-9.065980308306708,-1.0729960265285394,-1.2046639398941497,-0.2549011685992433,-0.2825971019802765,-37.66071588952382,47.775177302674564,-133.73791781366762,9.263644870302224,1.2751074108503953,146.93607453959777,9.864805555555435,26.396361111111514
67700,67700.0,1.5412613694053694,-9.066161538338658,-1.0709781169629489,-1.2036482224837957,-0.2547604109741285,-0.2822251936638662,-37.6488427897186,47.774743639158146,-133.72061872388156,9.263724247647552,1.274441346992519,146.91756552099042,9.818708333333213,26.384041666667066
67800,67800.0,1.5410230395689286,-9.066342768370607,-1.0689602073973583,-1.2026325050734414,-0.2546196533490138,-0.281853285347456,-37.63696968991337,47.77430997564175,-133.70331963409552,9.263803624992882,1.2737752831346427,146.8990565023831,9.77261111111099,26.371722222222623
